<!--
Success: 0 errors, 1 warnings, 1 notes
  Information @ Bundle.entry[2].resource.ofType(QuestionnaireResponse).questionnaire (line 66, col100) : Canonical URL 'http://fhir.ch/ig/ch-orf/Questionnaire/order-referral-form' does not resolve
  Warning @ Bundle.entry[2].resource.ofType(QuestionnaireResponse) (line 66, col100) : The questionnaire 'http://fhir.ch/ig/ch-orf/Questionnaire/order-referral-form' could not be resolved, so no validation can be performed aga
  -> looks like the validator cannot resolve canonical url within the bundle (could also be correct?)
  
  using urn:uuid reference in canonical
  Success: 0 errors, 1 warnings, 0 notes
  Warning @ Bundle.entry[2].resource.ofType(QuestionnaireResponse) (line 63, col88) : The questionnaire 'urn:uuid:edfbad97-979c-4ab6-9c70-918fa363cca9' could not be resolved, so no validation can be performed against the base questionnaire
-->
<Bundle xmlns="http://hl7.org/fhir">
    <id value="bundle-order-referral-form"/>
    <identifier>
        <system value="urn:ietf:rfc:3986"/>
        <value value="urn:uuid:26d3dff7-ab05-4737-a49c-5eccd33595f7"/>
    </identifier>
    <type value="document"/>
    <timestamp value="2019-04-01T20:18:41.341+00:00"/>
    <entry>
        <fullUrl value="http://example.com/fhir/Composition/comp-order-referral-form"/>
        <resource>
            <Composition xmlns="http://hl7.org/fhir">
                <id value="comp-order-referral-form"/>
                <status value="final"/>
                <type>
                    <coding>
                        <system value="http://snomed.info/sct"/>
                        <code value="419891008"/>
                        <display value="Record artifact (record artifact)"/>
                    </coding>
                </type>
                <category>
                    <coding>
                        <system value="http://snomed.info/sct"/>
                        <code value="721963009"/>
                        <display value="Order (record artifact)"/>
                    </coding>
                </category>
                <date value="2019-03-31T11:46:09+02:00"/>
                <author>
                    <reference value="PractitionerRole/SabineMeierPraxisSeeblick"/>
                </author>
                <title value="Order-Referral-Form"/>
                <section>
                    <title value="Order-Referral"/>
                    <code>
                        <coding>
                            <system value="http://loinc.org"/>
                            <code value="93037-0"/>
                            <display value="Portable medical order form"/>
                        </coding>
                    </code>
                    <text>
                        <status value="generated"/>
                        <div xmlns="http://www.w3.org/1999/xhtml"> Order-Referral-Form </div>
                    </text>
                    <entry>
                        <reference value="urn:uuid:edfbad97-979c-4ab6-9c70-918fa363cca9"/>
                    </entry>
                    <entry>
                        <reference value="QuestionnaireResponse/qr-order-referral-form"/>
                    </entry>
                </section>
            </Composition>
        </resource>
    </entry>

    <entry>
        <fullUrl value="http://example.com/fhir/PractitionerRole/SabineMeierPraxisSeeblick"/>
        <resource>
            <PractitionerRole xmlns="http://hl7.org/fhir">
                <id value="SabineMeierPraxisSeeblick"/>
            </PractitionerRole>
        </resource>
    </entry>
    <entry>
        <fullUrl value="http://example.com/fhir/QuestionnaireResponse/qr-order-referral-form"/>
        <resource>
            <QuestionnaireResponse xmlns="http://hl7.org/fhir">
                <id value="qr-order-referral-form"/>
                <!--                <questionnaire value="http://fhir.ch/ig/ch-orf/Questionnaire/order-referral-form"/> -->
                <questionnaire value="urn:uuid:edfbad97-979c-4ab6-9c70-918fa363cca9" />
                <status value="completed"/>
                <item>
                    <linkId value="order"/>
                    <text value="Auftrag"/>
                    <item>
                        <linkId value="order.placerOrderIdentifier"/>
                        <text value="Auftragsnummer des Auftraggebers"/>
                        <answer>
                            <valueString value="123"/>
                        </answer>
                    </item>
                </item>
            </QuestionnaireResponse>
        </resource>
    </entry>
    <entry>
        <fullUrl value="urn:uuid:edfbad97-979c-4ab6-9c70-918fa363cca9" />
        <resource>
            <Questionnaire xmlns="http://hl7.org/fhir">
                <id value="order-referral-form"/>
                <meta>
                    <profile value="http://fhir.ch/ig/ch-orf/StructureDefinition/ch-orf-questionnaire"/>
                    <profile value="http://hl7.org/fhir/uv/sdc/StructureDefinition/sdc-questionnaire"/>
                    <profile value="http://hl7.org/fhir/uv/sdc/StructureDefinition/sdc-questionnaire-extr-smap"/>
                    <profile value="http://hl7.org/fhir/uv/sdc/StructureDefinition/sdc-questionnaire-pop-exp"/>
                </meta>
                <extension url="http://hl7.org/fhir/uv/sdc/StructureDefinition/sdc-questionnaire-targetStructureMap">
                    <valueCanonical value="http://fhir.ch/ig/ch-orf/StructureMap/OrfQrToBundle"/>
                </extension>
                <extension url="http://hl7.org/fhir/uv/sdc/StructureDefinition/sdc-questionnaire-launchContext">
                    <extension url="name">
                        <valueCoding>
                            <system value="http://hl7.org/fhir/uv/sdc/CodeSystem/launchContext"/>
                            <code value="patient"/>
                        </valueCoding>
                    </extension>
                    <extension url="type">
                        <valueCode value="Patient"/>
                    </extension>
                </extension>
                <extension url="http://hl7.org/fhir/uv/sdc/StructureDefinition/sdc-questionnaire-launchContext">
                    <extension url="name">
                        <valueCoding>
                            <system value="http://hl7.org/fhir/uv/sdc/CodeSystem/launchContext"/>
                            <code value="user"/>
                            <display value="User"/>
                        </valueCoding>
                    </extension>
                    <extension url="type">
                        <valueCode value="Practitioner"/>
                    </extension>
                    <extension url="description">
                        <valueString value="The practitioner that is to be used to pre-populate the form"/>
                    </extension>
                </extension>
                <extension url="http://hl7.org/fhir/uv/sdc/StructureDefinition/sdc-questionnaire-assembledFrom">
                    <valueCanonical value="http://fhir.ch/ig/ch-orf/Questionnaire/ch-orf-module-order|1.1.0"/>
                </extension>
                <extension url="http://hl7.org/fhir/uv/sdc/StructureDefinition/sdc-questionnaire-assembledFrom">
                    <valueCanonical value="http://fhir.ch/ig/ch-orf/Questionnaire/ch-orf-module-practitioner-nametel|1.1.0"/>
                </extension>
                <extension url="http://hl7.org/fhir/uv/sdc/StructureDefinition/sdc-questionnaire-assembledFrom">
                    <valueCanonical value="http://fhir.ch/ig/ch-orf/Questionnaire/ch-orf-module-receiver|1.1.0"/>
                </extension>
                <extension url="http://hl7.org/fhir/uv/sdc/StructureDefinition/sdc-questionnaire-assembledFrom">
                    <valueCanonical value="http://fhir.ch/ig/ch-orf/Questionnaire/ch-orf-module-address|1.1.0"/>
                </extension>
                <extension url="http://hl7.org/fhir/uv/sdc/StructureDefinition/sdc-questionnaire-assembledFrom">
                    <valueCanonical value="http://fhir.ch/ig/ch-orf/Questionnaire/ch-orf-module-initiator|1.1.0"/>
                </extension>
                <extension url="http://hl7.org/fhir/uv/sdc/StructureDefinition/sdc-questionnaire-assembledFrom">
                    <valueCanonical value="http://fhir.ch/ig/ch-orf/Questionnaire/ch-orf-module-patient|1.1.0"/>
                </extension>
                <extension url="http://hl7.org/fhir/uv/sdc/StructureDefinition/sdc-questionnaire-assembledFrom">
                    <valueCanonical value="http://fhir.ch/ig/ch-orf/Questionnaire/ch-orf-module-familydoctor|1.1.0"/>
                </extension>
                <extension url="http://hl7.org/fhir/uv/sdc/StructureDefinition/sdc-questionnaire-assembledFrom">
                    <valueCanonical value="http://fhir.ch/ig/ch-orf/Questionnaire/ch-orf-module-requestedencounter|1.1.0"/>
                </extension>
                <extension url="http://hl7.org/fhir/uv/sdc/StructureDefinition/sdc-questionnaire-assembledFrom">
                    <valueCanonical value="http://fhir.ch/ig/ch-orf/Questionnaire/ch-orf-module-coverage|1.1.0"/>
                </extension>
                <extension url="http://hl7.org/fhir/uv/sdc/StructureDefinition/sdc-questionnaire-assembledFrom">
                    <valueCanonical value="http://fhir.ch/ig/ch-orf/Questionnaire/ch-orf-module-sender|1.1.0"/>
                </extension>
                <extension url="http://hl7.org/fhir/uv/sdc/StructureDefinition/sdc-questionnaire-assembledFrom">
                    <valueCanonical value="http://fhir.ch/ig/ch-orf/Questionnaire/ch-orf-module-receivercopy|1.1.0"/>
                </extension>
                <extension url="http://hl7.org/fhir/uv/sdc/StructureDefinition/sdc-questionnaire-assembledFrom">
                    <valueCanonical value="http://fhir.ch/ig/ch-orf/Questionnaire/ch-orf-module-appointment|1.1.0"/>
                </extension>
                <extension url="http://hl7.org/fhir/uv/sdc/StructureDefinition/sdc-questionnaire-assembledFrom">
                    <valueCanonical value="http://fhir.ch/ig/ch-orf/Questionnaire/ch-orf-module-consent|1.1.0"/>
                </extension>
                <url value="http://fhir.ch/ig/ch-orf/Questionnaire/order-referral-form"/>
                <version value="1.1.0"/>
                <name value="OrderReferralForm"/>
                <title value="Order Referral Form"/>
                <status value="active"/>
                <subjectType value="Patient"/>
                <date value="2022-07-07"/>
                <publisher value="HL7 Switzerland"/>
                <contact>
                    <name value="HL7 Switzerland"/>
                    <telecom>
                        <system value="url"/>
                        <value value="https://www.hl7.ch/"/>
                    </telecom>
                </contact>
                <jurisdiction>
                    <coding>
                        <system value="urn:iso:std:iso:3166"/>
                        <code value="CH"/>
                    </coding>
                </jurisdiction>
                <copyright value="CC-BY-SA-4.0"/>
                <item>
                    <linkId value="order"/>
                    <text value="Auftrag"/>
                    <type value="group"/>
                    <required value="true"/>
                    <item>
                        <linkId value="order.placerOrderIdentifier"/>
                        <definition value="http://fhir.ch/ig/ch-orf/StructureDefinition/ch-orf-servicerequest#ServiceRequest.identifier:placerOrderIdentifier.value"/>
                        <text value="Auftragsnummer des Auftraggebers"/>
                        <type value="string"/>
                    </item>
                    <item>
                        <extension url="http://hl7.org/fhir/StructureDefinition/questionnaire-hidden">
                            <valueBoolean value="true"/>
                        </extension>
                        <linkId value="order.placerOrderIdentifierDomain"/>
                        <definition value="http://fhir.ch/ig/ch-orf/StructureDefinition/ch-orf-servicerequest#ServiceRequest.identifier:placerOrderIdentifier.system"/>
                        <text value="Identifier Domain der Auftragsnummer des Auftraggebers"/>
                        <type value="string"/>
                    </item>
                    <item>
                        <linkId value="order.fillerOrderIdentifier"/>
                        <definition value="http://fhir.ch/ig/ch-orf/StructureDefinition/ch-orf-servicerequest#ServiceRequest.identifier:fillerOrderIdentifier.value"/>
                        <text value="Auftragsnummer des Auftragsempfängers"/>
                        <type value="string"/>
                    </item>
                    <item>
                        <extension url="http://hl7.org/fhir/StructureDefinition/questionnaire-hidden">
                            <valueBoolean value="true"/>
                        </extension>
                        <linkId value="order.fillerOrderIdentifierDomain"/>
                        <definition value="http://fhir.ch/ig/ch-orf/StructureDefinition/ch-orf-servicerequest#ServiceRequest.identifier:fillerOrderIdentifier.system"/>
                        <text value="Identifier Domain der Auftragsnummer des Auftragsempfängers"/>
                        <type value="string"/>
                    </item>
                    <item>
                        <extension url="http://hl7.org/fhir/StructureDefinition/questionnaire-hidden">
                            <valueBoolean value="true"/>
                        </extension>
                        <linkId value="order.precedentDocumentIdentifier"/>
                        <definition value="http://fhir.ch/ig/ch-orf/StructureDefinition/ch-orf-composition#Composition.extension:precedentDocument"/>
                        <text value="Identifier des Vorgängerdokuments"/>
                        <type value="string"/>
                    </item>
                    <item>
                        <linkId value="order.notificationContactDocument"/>
                        <definition value="http://fhir.ch/ig/ch-orf/StructureDefinition/ch-orf-composition#Composition.extension:urgentNoficationContactForThisDocument"/>
                        <text value="Dringender Benachrichtigungskontakt für dieses Dokument"/>
                        <type value="group"/>
                        <item>
                            <extension url="http://hl7.org/fhir/StructureDefinition/variable">
                                <valueExpression>
                                    <name value="linkIdPrefix"/>
                                    <language value="text/fhirpath"/>
                                    <expression value="'order.notificationContactDocument.practitioner.'"/>
                                </valueExpression>
                            </extension>
                            <linkId value="order.notificationContactDocument.practitioner"/>
                            <definition value="http://fhir.ch/ig/ch-core/StructureDefinition/ch-core-practitionerrole#PractitionerRole.practitioner"/>
                            <text value="Zu benachrichtigende Person"/>
                            <type value="group"/>
                            <item>
                                <linkId value="order.notificationContactDocument.practitioner.title"/>
                                <definition value="http://fhir.ch/ig/ch-core/StructureDefinition/ch-core-practitioner#Practitioner.name.prefix"/>
                                <text value="Titel"/>
                                <type value="string"/>
                            </item>
                            <item>
                                <linkId value="order.notificationContactDocument.practitioner.familyName"/>
                                <definition value="http://fhir.ch/ig/ch-core/StructureDefinition/ch-core-practitioner#Practitioner.name.family"/>
                                <text value="Name"/>
                                <type value="string"/>
                            </item>
                            <item>
                                <linkId value="order.notificationContactDocument.practitioner.givenName"/>
                                <definition value="http://fhir.ch/ig/ch-core/StructureDefinition/ch-core-practitioner#Practitioner.name.given"/>
                                <text value="Vorname"/>
                                <type value="string"/>
                            </item>
                            <item>
                                <linkId value="order.notificationContactDocument.practitioner.phone"/>
                                <definition value="http://fhir.ch/ig/ch-core/StructureDefinition/ch-core-practitioner#Practitioner.telecom.value"/>
                                <text value="Telefon"/>
                                <type value="string"/>
                            </item>
                            <item>
                                <linkId value="order.notificationContactDocument.practitioner.email"/>
                                <definition value="http://fhir.ch/ig/ch-core/StructureDefinition/ch-core-practitioner#Practitioner.telecom.value"/>
                                <text value="E-Mail"/>
                                <type value="string"/>
                            </item>
                        </item>
                    </item>
                    <item>
                        <linkId value="order.notificationContactDocumentResponse"/>
                        <definition value="http://fhir.ch/ig/ch-orf/StructureDefinition/ch-orf-composition#Composition.extension:urgentNoficationContactForTheResponseToThisDocument"/>
                        <text value="Dringender Benachrichtigungskontakt für die Antwort auf dieses Dokument"/>
                        <type value="group"/>
                        <item>
                            <extension url="http://hl7.org/fhir/StructureDefinition/variable">
                                <valueExpression>
                                    <name value="linkIdPrefix"/>
                                    <language value="text/fhirpath"/>
                                    <expression value="'order.notificationContactDocumentResponse.practitioner.'"/>
                                </valueExpression>
                            </extension>
                            <linkId value="order.notificationContactDocumentResponse.practitioner"/>
                            <definition value="http://fhir.ch/ig/ch-core/StructureDefinition/ch-core-practitionerrole#PractitionerRole.practitioner"/>
                            <text value="Zu benachrichtigende Person"/>
                            <type value="group"/>
                            <item>
                                <linkId value="order.notificationContactDocumentResponse.practitioner.title"/>
                                <definition value="http://fhir.ch/ig/ch-core/StructureDefinition/ch-core-practitioner#Practitioner.name.prefix"/>
                                <text value="Titel"/>
                                <type value="string"/>
                            </item>
                            <item>
                                <linkId value="order.notificationContactDocumentResponse.practitioner.familyName"/>
                                <definition value="http://fhir.ch/ig/ch-core/StructureDefinition/ch-core-practitioner#Practitioner.name.family"/>
                                <text value="Name"/>
                                <type value="string"/>
                            </item>
                            <item>
                                <linkId value="order.notificationContactDocumentResponse.practitioner.givenName"/>
                                <definition value="http://fhir.ch/ig/ch-core/StructureDefinition/ch-core-practitioner#Practitioner.name.given"/>
                                <text value="Vorname"/>
                                <type value="string"/>
                            </item>
                            <item>
                                <linkId value="order.notificationContactDocumentResponse.practitioner.phone"/>
                                <definition value="http://fhir.ch/ig/ch-core/StructureDefinition/ch-core-practitioner#Practitioner.telecom.value"/>
                                <text value="Telefon"/>
                                <type value="string"/>
                            </item>
                            <item>
                                <linkId value="order.notificationContactDocumentResponse.practitioner.email"/>
                                <definition value="http://fhir.ch/ig/ch-core/StructureDefinition/ch-core-practitioner#Practitioner.telecom.value"/>
                                <text value="E-Mail"/>
                                <type value="string"/>
                            </item>
                        </item>
                    </item>
                    <item>
                        <linkId value="order.priority"/>
                        <definition value="http://fhir.ch/ig/ch-orf/StructureDefinition/ch-orf-servicerequest#ServiceRequest.priority"/>
                        <text value="Auftragspriorität"/>
                        <type value="choice"/>
                        <answerOption>
                            <valueCoding>
                                <system value="http://hl7.org/fhir/request-priority"/>
                                <code value="routine"/>
                                <display value="Die Anfrage hat normale Priorität."/>
                            </valueCoding>
                            <initialSelected value="true"/>
                        </answerOption>
                        <answerOption>
                            <valueCoding>
                                <system value="http://hl7.org/fhir/request-priority"/>
                                <code value="urgent"/>
                                <display value="Die Anfrage sollte dringend bearbeitet werden - höhere Priorität als normal."/>
                            </valueCoding>
                        </answerOption>
                        <answerOption>
                            <valueCoding>
                                <system value="http://hl7.org/fhir/request-priority"/>
                                <code value="asap"/>
                                <display value="Die Anfrage sollte so schnell wie möglich bearbeitet werden - höhere Priorität als dringend."/>
                            </valueCoding>
                        </answerOption>
                        <answerOption>
                            <valueCoding>
                                <system value="http://hl7.org/fhir/request-priority"/>
                                <code value="stat"/>
                                <display value="Die Anfrage sollte sofort bearbeitet werden - höchstmögliche Priorität. Z.B. bei einem Notfall."/>
                            </valueCoding>
                        </answerOption>
                    </item>
                </item>
                <item>
                    <linkId value="receiver"/>
                    <definition value="http://fhir.ch/ig/ch-orf/StructureDefinition/ch-orf-composition#Composition.extension:receiver"/>
                    <text value="Empfänger"/>
                    <type value="group"/>
                    <item>
                        <linkId value="receiver.practitioner"/>
                        <definition value="http://fhir.ch/ig/ch-core/StructureDefinition/ch-core-practitionerrole#PractitionerRole.practitioner"/>
                        <text value="Empfangende Person"/>
                        <type value="group"/>
                        <item>
                            <linkId value="receiver.practitioner.title"/>
                            <definition value="http://fhir.ch/ig/ch-core/StructureDefinition/ch-core-practitioner#Practitioner.name.prefix"/>
                            <text value="Titel"/>
                            <type value="string"/>
                        </item>
                        <item>
                            <linkId value="receiver.practitioner.familyName"/>
                            <definition value="http://fhir.ch/ig/ch-core/StructureDefinition/ch-core-practitioner#Practitioner.name.family"/>
                            <text value="Name"/>
                            <type value="string"/>
                        </item>
                        <item>
                            <linkId value="receiver.practitioner.givenName"/>
                            <definition value="http://fhir.ch/ig/ch-core/StructureDefinition/ch-core-practitioner#Practitioner.name.given"/>
                            <text value="Vorname"/>
                            <type value="string"/>
                        </item>
                        <item>
                            <linkId value="receiver.practitioner.gln"/>
                            <definition value="http://fhir.ch/ig/ch-core/StructureDefinition/ch-core-practitioner#Practitioner.identifier:GLN.value"/>
                            <text value="GLN"/>
                            <type value="string"/>
                        </item>
                        <item>
                            <linkId value="receiver.practitioner.zsr"/>
                            <definition value="http://fhir.ch/ig/ch-core/StructureDefinition/ch-core-practitioner#Practitioner.identifier:ZSR.value"/>
                            <text value="ZSR"/>
                            <type value="string"/>
                        </item>
                        <item>
                            <linkId value="receiver.practitioner.phone"/>
                            <definition value="http://fhir.ch/ig/ch-core/StructureDefinition/ch-core-practitioner#Practitioner.telecom.value"/>
                            <text value="Telefon"/>
                            <type value="string"/>
                        </item>
                        <item>
                            <linkId value="receiver.practitioner.email"/>
                            <definition value="http://fhir.ch/ig/ch-core/StructureDefinition/ch-core-practitioner#Practitioner.telecom.value"/>
                            <text value="E-Mail"/>
                            <type value="string"/>
                        </item>
                    </item>
                    <item>
                        <extension url="http://hl7.org/fhir/StructureDefinition/variable">
                            <valueExpression>
                                <name value="linkIdPrefix"/>
                                <language value="text/fhirpath"/>
                                <expression value="'receiver.organization.'"/>
                            </valueExpression>
                        </extension>
                        <linkId value="receiver.organization"/>
                        <definition value="http://fhir.ch/ig/ch-core/StructureDefinition/ch-core-practitionerrole#PractitionerRole.organization"/>
                        <text value="Empfangende Organisation"/>
                        <type value="group"/>
                        <item>
                            <linkId value="receiver.organization.name"/>
                            <definition value="http://fhir.ch/ig/ch-core/StructureDefinition/ch-core-organization#Organization.name"/>
                            <text value="Name der Organisation"/>
                            <type value="string"/>
                        </item>
                        <item>
                            <linkId value="receiver.organization.gln"/>
                            <definition value="http://fhir.ch/ig/ch-core/StructureDefinition/ch-core-organization#Organization.identifier:GLN"/>
                            <text value="GLN"/>
                            <type value="string"/>
                        </item>
                        <item>
                            <extension url="http://hl7.org/fhir/uv/sdc/StructureDefinition/sdc-questionnaire-initialExpression">
                                <valueExpression>
                                    <language value="text/fhirpath"/>
                                    <expression value="%address.line"/>
                                </valueExpression>
                            </extension>
                            <linkId value="receiver.organization.streetAddressLine"/>
                            <text value="Strasse, Hausnummer, Postfach etc."/>
                            <type value="string"/>
                            <repeats value="true"/>
                        </item>
                        <item>
                            <extension url="http://hl7.org/fhir/uv/sdc/StructureDefinition/sdc-questionnaire-initialExpression">
                                <valueExpression>
                                    <language value="text/fhirpath"/>
                                    <expression value="%address.postalCode"/>
                                </valueExpression>
                            </extension>
                            <linkId value="receiver.organization.postalCode"/>
                            <text value="PLZ"/>
                            <type value="string"/>
                        </item>
                        <item>
                            <extension url="http://hl7.org/fhir/uv/sdc/StructureDefinition/sdc-questionnaire-initialExpression">
                                <valueExpression>
                                    <language value="text/fhirpath"/>
                                    <expression value="%address.city"/>
                                </valueExpression>
                            </extension>
                            <linkId value="receiver.organization.city"/>
                            <text value="Ort"/>
                            <type value="string"/>
                        </item>
                        <item>
                            <extension url="http://hl7.org/fhir/uv/sdc/StructureDefinition/sdc-questionnaire-initialExpression">
                                <valueExpression>
                                    <language value="text/fhirpath"/>
                                    <expression value="%address.country"/>
                                </valueExpression>
                            </extension>
                            <linkId value="receiver.organization.country"/>
                            <text value="Land"/>
                            <type value="string"/>
                        </item>
                    </item>
                </item>
                <item>
                    <linkId value="initiator"/>
                    <definition value="http://fhir.ch/ig/ch-orf/StructureDefinition/ch-orf-composition#Composition.extension:initiator"/>
                    <text value="Initiant dieser Anmeldung"/>
                    <type value="group"/>
                    <item>
                        <linkId value="initiator.legalrelation"/>
                        <definition value="http://fhir.ch/ig/ch-orf/StructureDefinition/ch-orf-composition#Composition.extension:initator"/>
                        <text value="Juristische Beziehung zum Patienten"/>
                        <type value="choice"/>
                        <answerOption>
                            <valueCoding>
                                <system value="http://snomed.info/sct"/>
                                <code value="373068000"/>
                                <display value="Nicht definiert"/>
                            </valueCoding>
                        </answerOption>
                        <answerOption>
                            <valueCoding>
                                <system value="http://snomed.info/sct"/>
                                <code value="58626002"/>
                                <display value="Gesetzlicher Vertreter"/>
                            </valueCoding>
                        </answerOption>
                    </item>
                    <item>
                        <linkId value="initiator.personalrelation"/>
                        <definition value="http://fhir.ch/ig/ch-orf/StructureDefinition/ch-orf-composition#Composition.extension:initator"/>
                        <text value="Persönliche Beziehung zum Patienten?"/>
                        <type value="choice"/>
                        <answerOption>
                            <valueCoding>
                                <system value="http://snomed.info/sct"/>
                                <code value="66089001"/>
                                <display value="Tochter"/>
                            </valueCoding>
                        </answerOption>
                        <answerOption>
                            <valueCoding>
                                <system value="http://snomed.info/sct"/>
                                <code value="65616008"/>
                                <display value="Sohn"/>
                            </valueCoding>
                        </answerOption>
                        <answerOption>
                            <valueCoding>
                                <system value="http://snomed.info/sct"/>
                                <code value="127849001"/>
                                <display value="Ehemann"/>
                            </valueCoding>
                        </answerOption>
                        <answerOption>
                            <valueCoding>
                                <system value="http://snomed.info/sct"/>
                                <code value="127850001"/>
                                <display value="Ehefrau"/>
                            </valueCoding>
                        </answerOption>
                        <answerOption>
                            <valueCoding>
                                <system value="http://snomed.info/sct"/>
                                <code value="394921008"/>
                                <display value="Partner (eingetragene  Partnerschaft)"/>
                            </valueCoding>
                        </answerOption>
                        <answerOption>
                            <valueCoding>
                                <system value="http://snomed.info/sct"/>
                                <code value="70924004"/>
                                <display value="Bruder"/>
                            </valueCoding>
                        </answerOption>
                        <answerOption>
                            <valueCoding>
                                <system value="http://snomed.info/sct"/>
                                <code value="27733009"/>
                                <display value="Schwester"/>
                            </valueCoding>
                        </answerOption>
                        <answerOption>
                            <valueCoding>
                                <system value="http://snomed.info/sct"/>
                                <code value="72705000"/>
                                <display value="Mutter"/>
                            </valueCoding>
                        </answerOption>
                        <answerOption>
                            <valueCoding>
                                <system value="http://snomed.info/sct"/>
                                <code value="66839005"/>
                                <display value="Vater"/>
                            </valueCoding>
                        </answerOption>
                        <answerOption>
                            <valueCoding>
                                <system value="http://snomed.info/sct"/>
                                <code value="48385004"/>
                                <display value="Bekannt"/>
                            </valueCoding>
                        </answerOption>
                    </item>
                    <item>
                        <linkId value="initiator.practitionerRole"/>
                        <definition value="http://fhir.ch/ig/ch-core/StructureDefinition/ch-core-practitionerrole#PractitionerRole.practitioner"/>
                        <text value="Gesundheitsfachperson oder -organisation"/>
                        <type value="group"/>
                        <item>
                            <extension url="http://hl7.org/fhir/StructureDefinition/variable">
                                <valueExpression>
                                    <name value="linkIdPrefix"/>
                                    <language value="text/fhirpath"/>
                                    <expression value="'initiator.practitionerRole.practitioner.'"/>
                                </valueExpression>
                            </extension>
                            <linkId value="initiator.practitionerRole.practitioner"/>
                            <definition value="http://fhir.ch/ig/ch-core/StructureDefinition/ch-core-practitionerrole#PractitionerRole.practitioner"/>
                            <text value="Gesundheitsfachperson"/>
                            <type value="group"/>
                            <item>
                                <linkId value="initiator.practitionerRole.practitioner.title"/>
                                <definition value="http://fhir.ch/ig/ch-core/StructureDefinition/ch-core-practitioner#Practitioner.name.prefix"/>
                                <text value="Titel"/>
                                <type value="string"/>
                            </item>
                            <item>
                                <linkId value="initiator.practitionerRole.practitioner.familyName"/>
                                <definition value="http://fhir.ch/ig/ch-core/StructureDefinition/ch-core-practitioner#Practitioner.name.family"/>
                                <text value="Name"/>
                                <type value="string"/>
                            </item>
                            <item>
                                <linkId value="initiator.practitionerRole.practitioner.givenName"/>
                                <definition value="http://fhir.ch/ig/ch-core/StructureDefinition/ch-core-practitioner#Practitioner.name.given"/>
                                <text value="Vorname"/>
                                <type value="string"/>
                            </item>
                            <item>
                                <linkId value="initiator.practitionerRole.practitioner.phone"/>
                                <definition value="http://fhir.ch/ig/ch-core/StructureDefinition/ch-core-practitioner#Practitioner.telecom.value"/>
                                <text value="Telefon"/>
                                <type value="string"/>
                            </item>
                            <item>
                                <linkId value="initiator.practitionerRole.practitioner.email"/>
                                <definition value="http://fhir.ch/ig/ch-core/StructureDefinition/ch-core-practitioner#Practitioner.telecom.value"/>
                                <text value="E-Mail"/>
                                <type value="string"/>
                            </item>
                        </item>
                        <item>
                            <extension url="http://hl7.org/fhir/StructureDefinition/variable">
                                <valueExpression>
                                    <name value="linkIdPrefix"/>
                                    <language value="text/fhirpath"/>
                                    <expression value="'initiator.practitionerRole.organization.'"/>
                                </valueExpression>
                            </extension>
                            <linkId value="initiator.practitionerRole.organization"/>
                            <definition value="http://fhir.ch/ig/ch-core/StructureDefinition/ch-core-practitionerrole#PractitionerRole.organization"/>
                            <text value="Gesundheitsorganisatiton"/>
                            <type value="group"/>
                            <item>
                                <linkId value="initiator.practitionerRole.organization.name"/>
                                <definition value="http://fhir.ch/ig/ch-core/StructureDefinition/ch-core-organization#Organization.name"/>
                                <text value="Name der Organisation"/>
                                <type value="string"/>
                            </item>
                            <item>
                                <extension url="http://hl7.org/fhir/uv/sdc/StructureDefinition/sdc-questionnaire-initialExpression">
                                    <valueExpression>
                                        <language value="text/fhirpath"/>
                                        <expression value="%address.line"/>
                                    </valueExpression>
                                </extension>
                                <linkId value="initiator.practitionerRole.organization.streetAddressLine"/>
                                <text value="Strasse, Hausnummer, Postfach etc."/>
                                <type value="string"/>
                                <repeats value="true"/>
                            </item>
                            <item>
                                <extension url="http://hl7.org/fhir/uv/sdc/StructureDefinition/sdc-questionnaire-initialExpression">
                                    <valueExpression>
                                        <language value="text/fhirpath"/>
                                        <expression value="%address.postalCode"/>
                                    </valueExpression>
                                </extension>
                                <linkId value="initiator.practitionerRole.organization.postalCode"/>
                                <text value="PLZ"/>
                                <type value="string"/>
                            </item>
                            <item>
                                <extension url="http://hl7.org/fhir/uv/sdc/StructureDefinition/sdc-questionnaire-initialExpression">
                                    <valueExpression>
                                        <language value="text/fhirpath"/>
                                        <expression value="%address.city"/>
                                    </valueExpression>
                                </extension>
                                <linkId value="initiator.practitionerRole.organization.city"/>
                                <text value="Ort"/>
                                <type value="string"/>
                            </item>
                            <item>
                                <extension url="http://hl7.org/fhir/uv/sdc/StructureDefinition/sdc-questionnaire-initialExpression">
                                    <valueExpression>
                                        <language value="text/fhirpath"/>
                                        <expression value="%address.country"/>
                                    </valueExpression>
                                </extension>
                                <linkId value="initiator.practitionerRole.organization.country"/>
                                <text value="Land"/>
                                <type value="string"/>
                            </item>
                        </item>
                    </item>
                    <item>
                        <linkId value="initiator.relatedPerson"/>
                        <definition value="http://hl7.org/fhir/StructureDefinition/RelatedPerson#RelatedPerson"/>
                        <text value="Andere Person"/>
                        <type value="group"/>
                        <repeats value="true"/>
                        <item>
                            <extension url="http://hl7.org/fhir/StructureDefinition/variable">
                                <valueExpression>
                                    <name value="linkIdPrefix"/>
                                    <language value="text/fhirpath"/>
                                    <expression value="'initiator.relatedPerson.'"/>
                                </valueExpression>
                            </extension>
                            <linkId value="initiator.relatedPerson.familyName"/>
                            <definition value="http://hl7.org/fhir/StructureDefinition/RelatedPerson#RelatedPerson.name.family"/>
                            <text value="Name"/>
                            <type value="string"/>
                        </item>
                        <item>
                            <linkId value="initiator.relatedPerson.givenName"/>
                            <definition value="http://hl7.org/fhir/StructureDefinition/RelatedPerson#RelatedPerson.name.given"/>
                            <text value="Vorname"/>
                            <type value="string"/>
                        </item>
                        <item>
                            <linkId value="initiator.relatedPerson.phone"/>
                            <definition value="http://hl7.org/fhir/StructureDefinition/RelatedPerson#RelatedPerson.telecom.value"/>
                            <text value="Telefon"/>
                            <type value="string"/>
                            <repeats value="true"/>
                        </item>
                        <item>
                            <linkId value="initiator.relatedPerson.email"/>
                            <definition value="http://hl7.org/fhir/StructureDefinition/RelatedPerson#RelatedPerson.telecom.value"/>
                            <text value="E-Mail"/>
                            <type value="string"/>
                        </item>
                        <item>
                            <extension url="http://hl7.org/fhir/uv/sdc/StructureDefinition/sdc-questionnaire-initialExpression">
                                <valueExpression>
                                    <language value="text/fhirpath"/>
                                    <expression value="%address.line"/>
                                </valueExpression>
                            </extension>
                            <linkId value="initiator.relatedPerson.streetAddressLine"/>
                            <text value="Strasse, Hausnummer, Postfach etc."/>
                            <type value="string"/>
                            <repeats value="true"/>
                        </item>
                        <item>
                            <extension url="http://hl7.org/fhir/uv/sdc/StructureDefinition/sdc-questionnaire-initialExpression">
                                <valueExpression>
                                    <language value="text/fhirpath"/>
                                    <expression value="%address.postalCode"/>
                                </valueExpression>
                            </extension>
                            <linkId value="initiator.relatedPerson.postalCode"/>
                            <text value="PLZ"/>
                            <type value="string"/>
                        </item>
                        <item>
                            <extension url="http://hl7.org/fhir/uv/sdc/StructureDefinition/sdc-questionnaire-initialExpression">
                                <valueExpression>
                                    <language value="text/fhirpath"/>
                                    <expression value="%address.city"/>
                                </valueExpression>
                            </extension>
                            <linkId value="initiator.relatedPerson.city"/>
                            <text value="Ort"/>
                            <type value="string"/>
                        </item>
                        <item>
                            <extension url="http://hl7.org/fhir/uv/sdc/StructureDefinition/sdc-questionnaire-initialExpression">
                                <valueExpression>
                                    <language value="text/fhirpath"/>
                                    <expression value="%address.country"/>
                                </valueExpression>
                            </extension>
                            <linkId value="initiator.relatedPerson.country"/>
                            <text value="Land"/>
                            <type value="string"/>
                        </item>
                    </item>
                </item>
                <item>
                    <extension url="http://hl7.org/fhir/StructureDefinition/variable">
                        <valueExpression>
                            <name value="linkIdPrefix"/>
                            <language value="text/fhirpath"/>
                            <expression value="'patient.'"/>
                        </valueExpression>
                    </extension>
                    <extension url="http://hl7.org/fhir/StructureDefinition/variable">
                        <valueExpression>
                            <name value="address"/>
                            <language value="text/fhirpath"/>
                            <expression value="%patient.address"/>
                        </valueExpression>
                    </extension>
                    <linkId value="patient"/>
                    <definition value="http://fhir.ch/ig/ch-orf/StructureDefinition/ch-orf-composition#Composition.subject"/>
                    <text value="Patient"/>
                    <type value="group"/>
                    <required value="true"/>
                    <item>
                        <extension url="http://hl7.org/fhir/uv/sdc/StructureDefinition/sdc-questionnaire-initialExpression">
                            <valueExpression>
                                <language value="text/fhirpath"/>
                                <expression value="%patient.name.where(use='official').family"/>
                            </valueExpression>
                        </extension>
                        <linkId value="patient.familyName"/>
                        <definition value="http://fhir.ch/ig/ch-core/StructureDefinition/ch-core-patient#Patient.name.family"/>
                        <text value="Name"/>
                        <type value="string"/>
                    </item>
                    <item>
                        <extension url="http://hl7.org/fhir/uv/sdc/StructureDefinition/sdc-questionnaire-initialExpression">
                            <valueExpression>
                                <language value="text/fhirpath"/>
                                <expression value="%patient.name.where(use='maiden').family"/>
                            </valueExpression>
                        </extension>
                        <linkId value="patient.maidenName"/>
                        <definition value="http://fhir.ch/ig/ch-core/StructureDefinition/ch-core-patient#Patient.name.family"/>
                        <text value="Ledigname"/>
                        <type value="string"/>
                    </item>
                    <item>
                        <extension url="http://hl7.org/fhir/uv/sdc/StructureDefinition/sdc-questionnaire-initialExpression">
                            <valueExpression>
                                <language value="text/fhirpath"/>
                                <expression value="%patient.name.where(use='official').given"/>
                            </valueExpression>
                        </extension>
                        <linkId value="patient.givenName"/>
                        <definition value="http://fhir.ch/ig/ch-core/StructureDefinition/ch-core-patient#Patient.name.given"/>
                        <text value="Vorname"/>
                        <type value="string"/>
                    </item>
                    <item>
                        <extension url="http://hl7.org/fhir/uv/sdc/StructureDefinition/sdc-questionnaire-initialExpression">
                            <valueExpression>
                                <language value="text/fhirpath"/>
                                <expression value="%patient.identifier.where(type.coding.where(system='http://terminology.hl7.org/CodeSystem/v2-0203' and code='MR').exists()).value"/>
                            </valueExpression>
                        </extension>
                        <linkId value="patient.localPid"/>
                        <definition value="http://fhir.ch/ig/ch-core/StructureDefinition/ch-core-patient#Patient.identifier:LocalPid.value"/>
                        <text value="Lokale Patienten-ID"/>
                        <type value="string"/>
                    </item>
                    <item>
                        <extension url="http://hl7.org/fhir/StructureDefinition/questionnaire-hidden">
                            <valueBoolean value="true"/>
                        </extension>
                        <linkId value="patient.localPidDomain"/>
                        <definition value="http://fhir.ch/ig/ch-core/StructureDefinition/ch-core-patient#Patient.identifier:LocalPid.system"/>
                        <text value="Lokale Patienten-ID Domain"/>
                        <type value="string"/>
                    </item>
                    <item>
                        <extension url="http://hl7.org/fhir/uv/sdc/StructureDefinition/sdc-questionnaire-initialExpression">
                            <valueExpression>
                                <language value="text/fhirpath"/>
                                <expression value="%patient.birthDate"/>
                            </valueExpression>
                        </extension>
                        <linkId value="patient.birthDate"/>
                        <definition value="http://fhir.ch/ig/ch-core/StructureDefinition/ch-core-patient#Patient.birthDate"/>
                        <text value="Geburtsdatum"/>
                        <type value="date"/>
                    </item>
                    <item>
                        <extension url="http://hl7.org/fhir/uv/sdc/StructureDefinition/sdc-questionnaire-initialExpression">
                            <valueExpression>
                                <language value="text/fhirpath"/>
                                <expression value="%questionnaire.repeat(item).where(linkId='patient.gender').answerOption.valueCoding.where(code=%patient.gender)"/>
                            </valueExpression>
                        </extension>
                        <linkId value="patient.gender"/>
                        <definition value="http://fhir.ch/ig/ch-core/StructureDefinition/ch-core-patient#Patient.gender"/>
                        <text value="Geschlecht"/>
                        <type value="choice"/>
                        <answerOption>
                            <valueCoding>
                                <system value="http://hl7.org/fhir/administrative-gender"/>
                                <code value="male"/>
                                <display value="Männlich"/>
                            </valueCoding>
                            <initialSelected value="true"/>
                        </answerOption>
                        <answerOption>
                            <valueCoding>
                                <system value="http://hl7.org/fhir/administrative-gender"/>
                                <code value="female"/>
                                <display value="Weiblich"/>
                            </valueCoding>
                        </answerOption>
                        <answerOption>
                            <valueCoding>
                                <system value="http://hl7.org/fhir/administrative-gender"/>
                                <code value="other"/>
                                <display value="Anderes"/>
                            </valueCoding>
                        </answerOption>
                    </item>
                    <item>
                        <extension url="http://hl7.org/fhir/uv/sdc/StructureDefinition/sdc-questionnaire-initialExpression">
                            <valueExpression>
                                <language value="text/fhirpath"/>
                                <expression value="%patient.maritalStatus"/>
                            </valueExpression>
                        </extension>
                        <linkId value="patient.maritalStatus"/>
                        <definition value="http://fhir.ch/ig/ch-core/StructureDefinition/ch-core-patient#Patient.maritalStatus"/>
                        <text value="Zivilstand"/>
                        <type value="choice"/>
                        <answerOption>
                            <valueCoding>
                                <system value="http://fhir.ch/ig/ch-core/CodeSystem/ech-11-maritalstatus"/>
                                <code value="1"/>
                                <display value="ledig"/>
                            </valueCoding>
                        </answerOption>
                        <answerOption>
                            <valueCoding>
                                <system value="http://fhir.ch/ig/ch-core/CodeSystem/ech-11-maritalstatus"/>
                                <code value="2"/>
                                <display value="verheiratet"/>
                            </valueCoding>
                        </answerOption>
                        <answerOption>
                            <valueCoding>
                                <system value="http://fhir.ch/ig/ch-core/CodeSystem/ech-11-maritalstatus"/>
                                <code value="3"/>
                                <display value="verwitwet"/>
                            </valueCoding>
                        </answerOption>
                        <answerOption>
                            <valueCoding>
                                <system value="http://fhir.ch/ig/ch-core/CodeSystem/ech-11-maritalstatus"/>
                                <code value="4"/>
                                <display value="geschieden"/>
                            </valueCoding>
                        </answerOption>
                        <answerOption>
                            <valueCoding>
                                <system value="http://fhir.ch/ig/ch-core/CodeSystem/ech-11-maritalstatus"/>
                                <code value="5"/>
                                <display value="unverheiratet"/>
                            </valueCoding>
                        </answerOption>
                        <answerOption>
                            <valueCoding>
                                <system value="http://fhir.ch/ig/ch-core/CodeSystem/ech-11-maritalstatus"/>
                                <code value="6"/>
                                <display value="in eingetragener Partnerschaft"/>
                            </valueCoding>
                        </answerOption>
                        <answerOption>
                            <valueCoding>
                                <system value="http://fhir.ch/ig/ch-core/CodeSystem/ech-11-maritalstatus"/>
                                <code value="7"/>
                                <display value="aufgelöste Partnerschaft"/>
                            </valueCoding>
                        </answerOption>
                        <answerOption>
                            <valueCoding>
                                <system value="http://fhir.ch/ig/ch-core/CodeSystem/ech-11-maritalstatus"/>
                                <code value="9"/>
                                <display value="unbekannt"/>
                            </valueCoding>
                        </answerOption>
                    </item>
                    <item>
                        <extension url="http://hl7.org/fhir/uv/sdc/StructureDefinition/sdc-questionnaire-initialExpression">
                            <valueExpression>
                                <language value="text/fhirpath"/>
                                <expression value="%patient.telecom.where(system='phone').value"/>
                            </valueExpression>
                        </extension>
                        <linkId value="patient.phone"/>
                        <definition value="http://fhir.ch/ig/ch-core/StructureDefinition/ch-core-patient#Patient.telecom.value"/>
                        <text value="Telefon"/>
                        <type value="string"/>
                        <repeats value="true"/>
                    </item>
                    <item>
                        <extension url="http://hl7.org/fhir/uv/sdc/StructureDefinition/sdc-questionnaire-initialExpression">
                            <valueExpression>
                                <language value="text/fhirpath"/>
                                <expression value="%patient.telecom.where(system='email').value"/>
                            </valueExpression>
                        </extension>
                        <linkId value="patient.email"/>
                        <definition value="http://fhir.ch/ig/ch-core/StructureDefinition/ch-core-patient#Patient.telecom.value"/>
                        <text value="E-Mail"/>
                        <type value="string"/>
                    </item>
                    <item>
                        <extension url="http://hl7.org/fhir/uv/sdc/StructureDefinition/sdc-questionnaire-initialExpression">
                            <valueExpression>
                                <language value="text/fhirpath"/>
                                <expression value="%address.line"/>
                            </valueExpression>
                        </extension>
                        <linkId value="patient.streetAddressLine"/>
                        <text value="Strasse, Hausnummer, Postfach etc."/>
                        <type value="string"/>
                        <repeats value="true"/>
                    </item>
                    <item>
                        <extension url="http://hl7.org/fhir/uv/sdc/StructureDefinition/sdc-questionnaire-initialExpression">
                            <valueExpression>
                                <language value="text/fhirpath"/>
                                <expression value="%address.postalCode"/>
                            </valueExpression>
                        </extension>
                        <linkId value="patient.postalCode"/>
                        <text value="PLZ"/>
                        <type value="string"/>
                    </item>
                    <item>
                        <extension url="http://hl7.org/fhir/uv/sdc/StructureDefinition/sdc-questionnaire-initialExpression">
                            <valueExpression>
                                <language value="text/fhirpath"/>
                                <expression value="%address.city"/>
                            </valueExpression>
                        </extension>
                        <linkId value="patient.city"/>
                        <text value="Ort"/>
                        <type value="string"/>
                    </item>
                    <item>
                        <extension url="http://hl7.org/fhir/uv/sdc/StructureDefinition/sdc-questionnaire-initialExpression">
                            <valueExpression>
                                <language value="text/fhirpath"/>
                                <expression value="%address.country"/>
                            </valueExpression>
                        </extension>
                        <linkId value="patient.country"/>
                        <text value="Land"/>
                        <type value="string"/>
                    </item>
                    <item>
                        <extension url="http://hl7.org/fhir/uv/sdc/StructureDefinition/sdc-questionnaire-initialExpression">
                            <valueExpression>
                                <language value="text/fhirpath"/>
                                <expression value="%patient.communication.where(preferred=true).language.coding"/>
                            </valueExpression>
                        </extension>
                        <linkId value="patient.languageOfCorrespondence"/>
                        <definition value="http://fhir.ch/ig/ch-core/StructureDefinition/ch-core-patient#Patient.communication:languageOfCorrespondence"/>
                        <text value="Korrespondenzsprache"/>
                        <type value="choice"/>
                        <answerValueSet value="http://fhir.ch/ig/ch-epr-term/ValueSet/DocumentEntry.languageCode"/>
                    </item>
                    <item>
                        <extension url="http://hl7.org/fhir/StructureDefinition/variable">
                            <valueExpression>
                                <name value="contact"/>
                                <language value="text/fhirpath"/>
                                <expression value="%patient.contact"/>
                            </valueExpression>
                        </extension>
                        <linkId value="patient.contactperson"/>
                        <definition value="http://fhir.ch/ig/ch-core/StructureDefinition/ch-core-patient#Patient.contact"/>
                        <text value="Kontaktperson"/>
                        <type value="group"/>
                        <item>
                            <extension url="http://hl7.org/fhir/uv/sdc/StructureDefinition/sdc-questionnaire-initialExpression">
                                <valueExpression>
                                    <language value="text/fhirpath"/>
                                    <expression value="%contact.relationship.text"/>
                                </valueExpression>
                            </extension>
                            <linkId value="patient.contactperson.relationship"/>
                            <definition value="http://fhir.ch/ig/ch-core/StructureDefinition/ch-core-patient#Patient.contact.relationship.text"/>
                            <text value="Beziehung"/>
                            <type value="string"/>
                        </item>
                        <item>
                            <extension url="http://hl7.org/fhir/uv/sdc/StructureDefinition/sdc-questionnaire-initialExpression">
                                <valueExpression>
                                    <language value="text/fhirpath"/>
                                    <expression value="%contact.name.family"/>
                                </valueExpression>
                            </extension>
                            <linkId value="patient.contactperson.familyName"/>
                            <definition value="http://fhir.ch/ig/ch-core/StructureDefinition/ch-core-patient#Patient.contact.name.family"/>
                            <text value="Name"/>
                            <type value="string"/>
                        </item>
                        <item>
                            <extension url="http://hl7.org/fhir/uv/sdc/StructureDefinition/sdc-questionnaire-initialExpression">
                                <valueExpression>
                                    <language value="text/fhirpath"/>
                                    <expression value="%contact.name.given"/>
                                </valueExpression>
                            </extension>
                            <linkId value="patient.contactperson.givenName"/>
                            <definition value="http://fhir.ch/ig/ch-core/StructureDefinition/ch-core-patient#Patient.contact.name.given"/>
                            <text value="Vorname"/>
                            <type value="string"/>
                        </item>
                        <item>
                            <extension url="http://hl7.org/fhir/uv/sdc/StructureDefinition/sdc-questionnaire-initialExpression">
                                <valueExpression>
                                    <language value="text/fhirpath"/>
                                    <expression value="%contact.telecom.where(system='phone').value"/>
                                </valueExpression>
                            </extension>
                            <linkId value="patient.contactperson.phone"/>
                            <definition value="http://fhir.ch/ig/ch-core/StructureDefinition/ch-core-patient#Patient.contact.telecom.value"/>
                            <text value="Telefon"/>
                            <type value="string"/>
                            <repeats value="true"/>
                        </item>
                        <item>
                            <extension url="http://hl7.org/fhir/uv/sdc/StructureDefinition/sdc-questionnaire-initialExpression">
                                <valueExpression>
                                    <language value="text/fhirpath"/>
                                    <expression value="%contact.telecom.where(system='email').value"/>
                                </valueExpression>
                            </extension>
                            <linkId value="patient.contactperson.email"/>
                            <definition value="http://fhir.ch/ig/ch-core/StructureDefinition/ch-core-patient#Patient.contact.telecom.value"/>
                            <text value="E-Mail"/>
                            <type value="string"/>
                        </item>
                    </item>
                    <item>
                        <linkId value="familydoctor"/>
                        <definition value="http://fhir.ch/ig/ch-core/StructureDefinition/ch-core-patient#Patient.generalPractitioner"/>
                        <text value="Hausarzt"/>
                        <type value="group"/>
                        <item>
                            <linkId value="familydoctor.practitioner"/>
                            <definition value="http://fhir.ch/ig/ch-core/StructureDefinition/ch-core-practitionerrole#PractitionerRole.practitioner"/>
                            <text value="Hausarzt Person"/>
                            <type value="group"/>
                            <item>
                                <linkId value="familydoctor.practitioner.title"/>
                                <definition value="http://fhir.ch/ig/ch-core/StructureDefinition/ch-core-practitioner#Practitioner.name.prefix"/>
                                <text value="Titel"/>
                                <type value="string"/>
                            </item>
                            <item>
                                <linkId value="familydoctor.practitioner.familyName"/>
                                <definition value="http://fhir.ch/ig/ch-core/StructureDefinition/ch-core-practitioner#Practitioner.name.family"/>
                                <text value="Name"/>
                                <type value="string"/>
                            </item>
                            <item>
                                <linkId value="familydoctor.practitioner.givenName"/>
                                <definition value="http://fhir.ch/ig/ch-core/StructureDefinition/ch-core-practitioner#Practitioner.name.given"/>
                                <text value="Vorname"/>
                                <type value="string"/>
                            </item>
                            <item>
                                <linkId value="familydoctor.practitioner.gln"/>
                                <definition value="http://fhir.ch/ig/ch-core/StructureDefinition/ch-core-practitioner#Practitioner.identifier:GLN.value"/>
                                <text value="GLN"/>
                                <type value="string"/>
                            </item>
                            <item>
                                <linkId value="familydoctor.practitioner.zsr"/>
                                <definition value="http://fhir.ch/ig/ch-core/StructureDefinition/ch-core-practitioner#Practitioner.identifier:ZSR.value"/>
                                <text value="ZSR"/>
                                <type value="string"/>
                            </item>
                            <item>
                                <linkId value="familydoctor.practitioner.phone"/>
                                <definition value="http://fhir.ch/ig/ch-core/StructureDefinition/ch-core-practitioner#Practitioner.telecom.value"/>
                                <text value="Telefon"/>
                                <type value="string"/>
                            </item>
                            <item>
                                <linkId value="familydoctor.practitioner.email"/>
                                <definition value="http://fhir.ch/ig/ch-core/StructureDefinition/ch-core-practitioner#Practitioner.telecom.value"/>
                                <text value="E-Mail"/>
                                <type value="string"/>
                            </item>
                        </item>
                        <item>
                            <extension url="http://hl7.org/fhir/StructureDefinition/variable">
                                <valueExpression>
                                    <name value="linkIdPrefix"/>
                                    <language value="text/fhirpath"/>
                                    <expression value="'familydoctor.organization.'"/>
                                </valueExpression>
                            </extension>
                            <linkId value="familydoctor.organization"/>
                            <definition value="http://fhir.ch/ig/ch-core/StructureDefinition/ch-core-practitionerrole#PractitionerRole.organization"/>
                            <text value="Hausarzt Organisation"/>
                            <type value="group"/>
                            <item>
                                <linkId value="familydoctor.organization.name"/>
                                <definition value="http://fhir.ch/ig/ch-core/StructureDefinition/ch-core-organization#Organization.name"/>
                                <text value="Name der Organisation"/>
                                <type value="string"/>
                            </item>
                            <item>
                                <linkId value="familydoctor.organization.gln"/>
                                <definition value="http://fhir.ch/ig/ch-core/StructureDefinition/ch-core-organization#Organization.identifier:GLN"/>
                                <text value="GLN"/>
                                <type value="string"/>
                            </item>
                            <item>
                                <extension url="http://hl7.org/fhir/uv/sdc/StructureDefinition/sdc-questionnaire-initialExpression">
                                    <valueExpression>
                                        <language value="text/fhirpath"/>
                                        <expression value="%address.line"/>
                                    </valueExpression>
                                </extension>
                                <linkId value="familydoctor.organization.streetAddressLine"/>
                                <text value="Strasse, Hausnummer, Postfach etc."/>
                                <type value="string"/>
                                <repeats value="true"/>
                            </item>
                            <item>
                                <extension url="http://hl7.org/fhir/uv/sdc/StructureDefinition/sdc-questionnaire-initialExpression">
                                    <valueExpression>
                                        <language value="text/fhirpath"/>
                                        <expression value="%address.postalCode"/>
                                    </valueExpression>
                                </extension>
                                <linkId value="familydoctor.organization.postalCode"/>
                                <text value="PLZ"/>
                                <type value="string"/>
                            </item>
                            <item>
                                <extension url="http://hl7.org/fhir/uv/sdc/StructureDefinition/sdc-questionnaire-initialExpression">
                                    <valueExpression>
                                        <language value="text/fhirpath"/>
                                        <expression value="%address.city"/>
                                    </valueExpression>
                                </extension>
                                <linkId value="familydoctor.organization.city"/>
                                <text value="Ort"/>
                                <type value="string"/>
                            </item>
                            <item>
                                <extension url="http://hl7.org/fhir/uv/sdc/StructureDefinition/sdc-questionnaire-initialExpression">
                                    <valueExpression>
                                        <language value="text/fhirpath"/>
                                        <expression value="%address.country"/>
                                    </valueExpression>
                                </extension>
                                <linkId value="familydoctor.organization.country"/>
                                <text value="Land"/>
                                <type value="string"/>
                            </item>
                        </item>
                    </item>
                </item>
                <item>
                    <linkId value="requestedEncounter"/>
                    <definition value="http://fhir.ch/ig/ch-orf/StructureDefinition/ch-orf-servicerequest#ServiceRequest.extension:requestedEncounterDetails"/>
                    <text value="Patientenaufnahme"/>
                    <type value="group"/>
                    <item>
                        <linkId value="requestedEncounter.class"/>
                        <definition value="http://fhir.ch/ig/ch-orf/StructureDefinition/ch-orf-encounter#Encounter.class"/>
                        <text value="Voraussichtlich: Ambulant / Stationär / Notfall"/>
                        <type value="choice"/>
                        <answerOption>
                            <valueCoding>
                                <system value="http://terminology.hl7.org/CodeSystem/v3-ActCode"/>
                                <code value="AMB"/>
                                <display value="Ambulant"/>
                            </valueCoding>
                        </answerOption>
                        <answerOption>
                            <valueCoding>
                                <system value="http://terminology.hl7.org/CodeSystem/v3-ActCode"/>
                                <code value="IMP"/>
                                <display value="Stationär"/>
                            </valueCoding>
                        </answerOption>
                        <answerOption>
                            <valueCoding>
                                <system value="http://terminology.hl7.org/CodeSystem/v3-ActCode"/>
                                <code value="EMER"/>
                                <display value="Notfall"/>
                            </valueCoding>
                        </answerOption>
                    </item>
                    <item>
                        <linkId value="requestedEncounter.desiredAccommodation"/>
                        <definition value="http://fhir.ch/ig/ch-orf/StructureDefinition/ch-orf-encounter#Encounter.extension:desiredAccommodation"/>
                        <text value="Zimmerkategorie"/>
                        <type value="choice"/>
                        <answerOption>
                            <valueCoding>
                                <system value="http://fhir.ch/ig/ch-core/CodeSystem/bfs-medstats-21-encountertype"/>
                                <code value="1"/>
                                <display value="allgemein"/>
                            </valueCoding>
                        </answerOption>
                        <answerOption>
                            <valueCoding>
                                <system value="http://fhir.ch/ig/ch-core/CodeSystem/bfs-medstats-21-encountertype"/>
                                <code value="2"/>
                                <display value="halbprivat"/>
                            </valueCoding>
                        </answerOption>
                        <answerOption>
                            <valueCoding>
                                <system value="http://fhir.ch/ig/ch-core/CodeSystem/bfs-medstats-21-encountertype"/>
                                <code value="3"/>
                                <display value="privat"/>
                            </valueCoding>
                        </answerOption>
                    </item>
                </item>
                <item>
                    <linkId value="coverage"/>
                    <definition value="http://fhir.ch/ig/ch-orf/StructureDefinition/ch-orf-servicerequest#ServiceRequest.insurance"/>
                    <text value="Kostenträger"/>
                    <type value="group"/>
                    <item>
                        <linkId value="coverage.beneficiary"/>
                        <definition value="http://fhir.ch/ig/ch-orf/StructureDefinition/ch-orf-coverage#Coverage.beneficiary"/>
                        <text value="Begünstigter (Patient)"/>
                        <type value="group"/>
                        <item>
                            <linkId value="coverage.beneficiary.ahvn13"/>
                            <definition value="http://fhir.ch/ig/ch-core/StructureDefinition/ch-core-patient#Patient.identifier:AHVN13"/>
                            <text value="AHV-Nr. des Patienten"/>
                            <type value="string"/>
                        </item>
                    </item>
                    <item>
                        <linkId value="coverage.kvg"/>
                        <definition value="http://fhir.ch/ig/ch-orf/StructureDefinition/ch-orf-coverage#Coverage.type"/>
                        <text value="Krankenkasse (nach KVG)"/>
                        <type value="group"/>
                        <item>
                            <linkId value="coverage.kvg.name"/>
                            <definition value="http://fhir.ch/ig/ch-orf/StructureDefinition/ch-orf-coverage#Coverage.payor"/>
                            <text value="Name der Versicherung"/>
                            <type value="string"/>
                        </item>
                        <item>
                            <linkId value="coverage.kvg.insuranceCardNumber"/>
                            <definition value="http://fhir.ch/ig/ch-orf/StructureDefinition/ch-orf-coverage#Coverage.identifier"/>
                            <text value="Kennnummer der Versichertenkarte"/>
                            <type value="string"/>
                        </item>
                    </item>
                    <item>
                        <linkId value="coverage.uvg"/>
                        <definition value="http://fhir.ch/ig/ch-orf/StructureDefinition/ch-orf-coverage#Coverage.type"/>
                        <text value="Unfallversicherung (nach UVG)"/>
                        <type value="group"/>
                        <item>
                            <linkId value="coverage.uvg.name"/>
                            <definition value="http://fhir.ch/ig/ch-orf/StructureDefinition/ch-orf-coverage#Coverage.payor"/>
                            <text value="Name der Versicherung"/>
                            <type value="string"/>
                        </item>
                        <item>
                            <linkId value="coverage.uvg.claimNumber"/>
                            <definition value="http://fhir.ch/ig/ch-orf/StructureDefinition/ch-orf-coverage#Coverage.identifier"/>
                            <text value="Schadennummer"/>
                            <type value="string"/>
                        </item>
                    </item>
                    <item>
                        <linkId value="coverage.vvg"/>
                        <definition value="http://fhir.ch/ig/ch-orf/StructureDefinition/ch-orf-coverage#Coverage.type"/>
                        <text value="Zusatzversicherung (nach VVG)"/>
                        <type value="group"/>
                        <item>
                            <linkId value="coverage.vvg.name"/>
                            <definition value="http://fhir.ch/ig/ch-orf/StructureDefinition/ch-orf-coverage#Coverage.payor"/>
                            <text value="Name der Versicherung"/>
                            <type value="string"/>
                        </item>
                        <item>
                            <linkId value="coverage.vvg.insuranceCardNumber"/>
                            <definition value="http://fhir.ch/ig/ch-orf/StructureDefinition/ch-orf-coverage#Coverage.identifier"/>
                            <text value="Kennnummer der Versichertenkarte"/>
                            <type value="string"/>
                        </item>
                    </item>
                    <item>
                        <linkId value="coverage.iv"/>
                        <definition value="http://fhir.ch/ig/ch-orf/StructureDefinition/ch-orf-coverage#Coverage.type"/>
                        <text value="Invalidenversicherung (IV)"/>
                        <type value="group"/>
                        <item>
                            <linkId value="coverage.iv.verfuegungsnummer"/>
                            <definition value="http://fhir.ch/ig/ch-orf/StructureDefinition/ch-orf-coverage#Coverage.identifier"/>
                            <text value="IV-Verfügungsnummer"/>
                            <type value="string"/>
                        </item>
                    </item>
                    <item>
                        <linkId value="coverage.mv"/>
                        <definition value="http://fhir.ch/ig/ch-orf/StructureDefinition/ch-orf-coverage#Coverage.type"/>
                        <text value="Militärversicherung (MV)"/>
                        <type value="group"/>
                        <item>
                            <linkId value="coverage.mv.versichertennummer"/>
                            <definition value="http://fhir.ch/ig/ch-orf/StructureDefinition/ch-orf-coverage#Coverage.identifier"/>
                            <text value="MV-Versichertennummer"/>
                            <type value="string"/>
                        </item>
                    </item>
                    <item>
                        <linkId value="coverage.self"/>
                        <definition value="http://fhir.ch/ig/ch-orf/StructureDefinition/ch-orf-coverage#Coverage.type"/>
                        <text value="Selbstzahler"/>
                        <type value="group"/>
                        <item>
                            <linkId value="coverage.self.patient"/>
                            <definition value="http://fhir.ch/ig/ch-orf/StructureDefinition/ch-orf-coverage#Coverage.payor"/>
                            <text value="Patient selbst"/>
                            <type value="boolean"/>
                        </item>
                        <item>
                            <linkId value="coverage.self.patientRelatedPerson"/>
                            <definition value="http://fhir.ch/ig/ch-orf/StructureDefinition/ch-orf-coverage#Coverage.payor"/>
                            <text value="Andere Person"/>
                            <type value="boolean"/>
                            <enableWhen>
                                <question value="coverage.self.patient"/>
                                <operator value="="/>
                                <answerBoolean value="false"/>
                            </enableWhen>
                        </item>
                        <item>
                            <extension url="http://hl7.org/fhir/StructureDefinition/variable">
                                <valueExpression>
                                    <name value="linkIdPrefix"/>
                                    <language value="text/fhirpath"/>
                                    <expression value="'coverage.self.relatedPerson.'"/>
                                </valueExpression>
                            </extension>
                            <linkId value="coverage.self.relatedPerson"/>
                            <definition value="http://fhir.ch/ig/ch-orf/StructureDefinition/ch-orf-coverage#Coverage.payor"/>
                            <text value="Andere Person"/>
                            <type value="group"/>
                            <enableWhen>
                                <question value="coverage.self.patientRelatedPerson"/>
                                <operator value="="/>
                                <answerBoolean value="true"/>
                            </enableWhen>
                            <item>
                                <linkId value="coverage.self.relatedPerson.familyName"/>
                                <definition value="http://hl7.org/fhir/StructureDefinition/RelatedPerson#RelatedPerson.name.family"/>
                                <text value="Name"/>
                                <type value="string"/>
                            </item>
                            <item>
                                <linkId value="coverage.self.relatedPerson.givenName"/>
                                <definition value="http://hl7.org/fhir/StructureDefinition/RelatedPerson#RelatedPerson.name.given"/>
                                <text value="Vorname"/>
                                <type value="string"/>
                            </item>
                            <item>
                                <linkId value="coverage.self.relatedPerson.phone"/>
                                <definition value="http://hl7.org/fhir/StructureDefinition/RelatedPerson#RelatedPerson.telecom.value"/>
                                <text value="Telefon"/>
                                <type value="string"/>
                                <repeats value="true"/>
                            </item>
                            <item>
                                <linkId value="coverage.self.relatedPerson.email"/>
                                <definition value="http://hl7.org/fhir/StructureDefinition/RelatedPerson#RelatedPerson.telecom.value"/>
                                <text value="E-Mail"/>
                                <type value="string"/>
                            </item>
                            <item>
                                <extension url="http://hl7.org/fhir/uv/sdc/StructureDefinition/sdc-questionnaire-initialExpression">
                                    <valueExpression>
                                        <language value="text/fhirpath"/>
                                        <expression value="%address.line"/>
                                    </valueExpression>
                                </extension>
                                <linkId value="coverage.self.relatedPerson.streetAddressLine"/>
                                <text value="Strasse, Hausnummer, Postfach etc."/>
                                <type value="string"/>
                                <repeats value="true"/>
                            </item>
                            <item>
                                <extension url="http://hl7.org/fhir/uv/sdc/StructureDefinition/sdc-questionnaire-initialExpression">
                                    <valueExpression>
                                        <language value="text/fhirpath"/>
                                        <expression value="%address.postalCode"/>
                                    </valueExpression>
                                </extension>
                                <linkId value="coverage.self.relatedPerson.postalCode"/>
                                <text value="PLZ"/>
                                <type value="string"/>
                            </item>
                            <item>
                                <extension url="http://hl7.org/fhir/uv/sdc/StructureDefinition/sdc-questionnaire-initialExpression">
                                    <valueExpression>
                                        <language value="text/fhirpath"/>
                                        <expression value="%address.city"/>
                                    </valueExpression>
                                </extension>
                                <linkId value="coverage.self.relatedPerson.city"/>
                                <text value="Ort"/>
                                <type value="string"/>
                            </item>
                            <item>
                                <extension url="http://hl7.org/fhir/uv/sdc/StructureDefinition/sdc-questionnaire-initialExpression">
                                    <valueExpression>
                                        <language value="text/fhirpath"/>
                                        <expression value="%address.country"/>
                                    </valueExpression>
                                </extension>
                                <linkId value="coverage.self.relatedPerson.country"/>
                                <text value="Land"/>
                                <type value="string"/>
                            </item>
                        </item>
                    </item>
                    <item>
                        <linkId value="coverage.other"/>
                        <definition value="http://fhir.ch/ig/ch-orf/StructureDefinition/ch-orf-coverage#Coverage.type"/>
                        <text value="Anderer Kostenträger"/>
                        <type value="group"/>
                        <item>
                            <linkId value="coverage.other.name"/>
                            <definition value="http://fhir.ch/ig/ch-orf/StructureDefinition/ch-orf-coverage#Coverage.payor"/>
                            <text value="Name des Kostenträgers"/>
                            <type value="string"/>
                        </item>
                        <item>
                            <linkId value="coverage.other.id"/>
                            <definition value="http://fhir.ch/ig/ch-orf/StructureDefinition/ch-orf-coverage#Coverage.identifier"/>
                            <text value="Beliebige ID"/>
                            <type value="string"/>
                        </item>
                        <item>
                            <linkId value="coverage.other.id.note"/>
                            <definition value="http://fhir.ch/ig/ch-orf/StructureDefinition/ch-orf-coverage#Coverage.identifier.type.text"/>
                            <text value="Bemerkung zur ID"/>
                            <type value="string"/>
                        </item>
                    </item>
                </item>
                <item>
                    <linkId value="sender"/>
                    <text value="Absender"/>
                    <type value="group"/>
                    <required value="true"/>
                    <item>
                        <extension url="http://hl7.org/fhir/StructureDefinition/variable">
                            <valueExpression>
                                <name value="senderPractitionerRoles"/>
                                <language value="application/x-fhir-query"/>
                                <expression value="PractitionerRole?practitioner={{%user.id}}"/>
                            </valueExpression>
                        </extension>
                        <extension url="http://hl7.org/fhir/StructureDefinition/variable">
                            <valueExpression>
                                <name value="senderPractitionerRole"/>
                                <language value="text/fhirpath"/>
                                <expression value="%senderPractitionerRoles.entry[0].resource"/>
                            </valueExpression>
                        </extension>
                        <extension url="http://hl7.org/fhir/StructureDefinition/variable">
                            <valueExpression>
                                <name value="senderOrganizations"/>
                                <language value="application/x-fhir-query"/>
                                <expression value="Organization?_id={{%senderPractitionerRole.organization.reference}}"/>
                            </valueExpression>
                        </extension>
                        <extension url="http://hl7.org/fhir/StructureDefinition/variable">
                            <valueExpression>
                                <name value="senderOrganization"/>
                                <language value="text/fhirpath"/>
                                <expression value="%senderOrganizations.entry[0].resource"/>
                            </valueExpression>
                        </extension>
                        <extension url="http://hl7.org/fhir/StructureDefinition/variable">
                            <valueExpression>
                                <name value="address"/>
                                <language value="text/fhirpath"/>
                                <expression value="%senderOrganization.address"/>
                            </valueExpression>
                        </extension>
                        <linkId value="sender.author"/>
                        <definition value="http://fhir.ch/ig/ch-orf/StructureDefinition/ch-orf-composition#Composition.author"/>
                        <text value="Verantwortlicher"/>
                        <type value="group"/>
                        <required value="true"/>
                        <item>
                            <linkId value="sender.author.practitioner"/>
                            <definition value="http://fhir.ch/ig/ch-core/StructureDefinition/ch-core-practitionerrole#PractitionerRole.practitioner"/>
                            <text value="Verantwortliche Person"/>
                            <type value="group"/>
                            <item>
                                <linkId value="sender.author.practitioner.title"/>
                                <definition value="http://fhir.ch/ig/ch-core/StructureDefinition/ch-core-practitioner#Practitioner.name.prefix"/>
                                <text value="Titel"/>
                                <type value="string"/>
                            </item>
                            <item>
                                <extension url="http://hl7.org/fhir/uv/sdc/StructureDefinition/sdc-questionnaire-initialExpression">
                                    <valueExpression>
                                        <language value="text/fhirpath"/>
                                        <expression value="%user.name.family"/>
                                    </valueExpression>
                                </extension>
                                <linkId value="sender.author.practitioner.familyName"/>
                                <definition value="http://fhir.ch/ig/ch-core/StructureDefinition/ch-core-practitioner#Practitioner.name.family"/>
                                <text value="Name"/>
                                <type value="string"/>
                            </item>
                            <item>
                                <extension url="http://hl7.org/fhir/uv/sdc/StructureDefinition/sdc-questionnaire-initialExpression">
                                    <valueExpression>
                                        <language value="text/fhirpath"/>
                                        <expression value="%user.name.given"/>
                                    </valueExpression>
                                </extension>
                                <linkId value="sender.author.practitioner.givenName"/>
                                <definition value="http://fhir.ch/ig/ch-core/StructureDefinition/ch-core-practitioner#Practitioner.name.given"/>
                                <text value="Vorname"/>
                                <type value="string"/>
                            </item>
                            <item>
                                <extension url="http://hl7.org/fhir/uv/sdc/StructureDefinition/sdc-questionnaire-initialExpression">
                                    <valueExpression>
                                        <language value="text/fhirpath"/>
                                        <expression value="%user.identifier.where(system='urn:oid:2.51.1.3').value"/>
                                    </valueExpression>
                                </extension>
                                <linkId value="sender.author.practitioner.gln"/>
                                <definition value="http://fhir.ch/ig/ch-core/StructureDefinition/ch-core-practitioner#Practitioner.identifier:GLN.value"/>
                                <text value="GLN"/>
                                <type value="string"/>
                            </item>
                            <item>
                                <extension url="http://hl7.org/fhir/uv/sdc/StructureDefinition/sdc-questionnaire-initialExpression">
                                    <valueExpression>
                                        <language value="text/fhirpath"/>
                                        <expression value="%user.identifier.where(system='urn:oid:2.16.756.5.30.1.123.100.2.1.1').value"/>
                                    </valueExpression>
                                </extension>
                                <linkId value="sender.author.practitioner.zsr"/>
                                <definition value="http://fhir.ch/ig/ch-core/StructureDefinition/ch-core-practitioner#Practitioner.identifier:ZSR.value"/>
                                <text value="ZSR"/>
                                <type value="string"/>
                            </item>
                            <item>
                                <extension url="http://hl7.org/fhir/uv/sdc/StructureDefinition/sdc-questionnaire-initialExpression">
                                    <valueExpression>
                                        <language value="text/fhirpath"/>
                                        <expression value="%user.telecom.where(system='phone').value"/>
                                    </valueExpression>
                                </extension>
                                <linkId value="sender.author.practitioner.phone"/>
                                <definition value="http://fhir.ch/ig/ch-core/StructureDefinition/ch-core-practitioner#Practitioner.telecom.value"/>
                                <text value="Telefon"/>
                                <type value="string"/>
                            </item>
                            <item>
                                <extension url="http://hl7.org/fhir/uv/sdc/StructureDefinition/sdc-questionnaire-initialExpression">
                                    <valueExpression>
                                        <language value="text/fhirpath"/>
                                        <expression value="%user.telecom.where(system='email').value"/>
                                    </valueExpression>
                                </extension>
                                <linkId value="sender.author.practitioner.email"/>
                                <definition value="http://fhir.ch/ig/ch-core/StructureDefinition/ch-core-practitioner#Practitioner.telecom.value"/>
                                <text value="E-Mail"/>
                                <type value="string"/>
                            </item>
                        </item>
                        <item>
                            <extension url="http://hl7.org/fhir/StructureDefinition/variable">
                                <valueExpression>
                                    <name value="linkIdPrefix"/>
                                    <language value="text/fhirpath"/>
                                    <expression value="'sender.author.organization.'"/>
                                </valueExpression>
                            </extension>
                            <linkId value="sender.author.organization"/>
                            <definition value="http://fhir.ch/ig/ch-core/StructureDefinition/ch-core-practitionerrole#PractitionerRole.organization"/>
                            <text value="Verantwortliche Organisation"/>
                            <type value="group"/>
                            <item>
                                <extension url="http://hl7.org/fhir/uv/sdc/StructureDefinition/sdc-questionnaire-initialExpression">
                                    <valueExpression>
                                        <language value="text/fhirpath"/>
                                        <expression value="%senderOrganization.name"/>
                                    </valueExpression>
                                </extension>
                                <linkId value="sender.author.organization.name"/>
                                <definition value="http://fhir.ch/ig/ch-core/StructureDefinition/ch-core-organization#Organization.name"/>
                                <text value="Name der Organisation"/>
                                <type value="string"/>
                            </item>
                            <item>
                                <extension url="http://hl7.org/fhir/uv/sdc/StructureDefinition/sdc-questionnaire-initialExpression">
                                    <valueExpression>
                                        <language value="text/fhirpath"/>
                                        <expression value="%senderOrganization.identifier.where(system='urn:oid:2.51.1.3').value"/>
                                    </valueExpression>
                                </extension>
                                <linkId value="sender.author.organization.gln"/>
                                <definition value="http://fhir.ch/ig/ch-core/StructureDefinition/ch-core-organization#Organization.identifier:GLN"/>
                                <text value="GLN"/>
                                <type value="string"/>
                            </item>
                            <item>
                                <extension url="http://hl7.org/fhir/uv/sdc/StructureDefinition/sdc-questionnaire-initialExpression">
                                    <valueExpression>
                                        <language value="text/fhirpath"/>
                                        <expression value="%address.line"/>
                                    </valueExpression>
                                </extension>
                                <linkId value="sender.author.organization.streetAddressLine"/>
                                <text value="Strasse, Hausnummer, Postfach etc."/>
                                <type value="string"/>
                                <repeats value="true"/>
                            </item>
                            <item>
                                <extension url="http://hl7.org/fhir/uv/sdc/StructureDefinition/sdc-questionnaire-initialExpression">
                                    <valueExpression>
                                        <language value="text/fhirpath"/>
                                        <expression value="%address.postalCode"/>
                                    </valueExpression>
                                </extension>
                                <linkId value="sender.author.organization.postalCode"/>
                                <text value="PLZ"/>
                                <type value="string"/>
                            </item>
                            <item>
                                <extension url="http://hl7.org/fhir/uv/sdc/StructureDefinition/sdc-questionnaire-initialExpression">
                                    <valueExpression>
                                        <language value="text/fhirpath"/>
                                        <expression value="%address.city"/>
                                    </valueExpression>
                                </extension>
                                <linkId value="sender.author.organization.city"/>
                                <text value="Ort"/>
                                <type value="string"/>
                            </item>
                            <item>
                                <extension url="http://hl7.org/fhir/uv/sdc/StructureDefinition/sdc-questionnaire-initialExpression">
                                    <valueExpression>
                                        <language value="text/fhirpath"/>
                                        <expression value="%address.country"/>
                                    </valueExpression>
                                </extension>
                                <linkId value="sender.author.organization.country"/>
                                <text value="Land"/>
                                <type value="string"/>
                            </item>
                        </item>
                    </item>
                    <item>
                        <linkId value="sender.dataenterer"/>
                        <definition value="http://fhir.ch/ig/ch-orf/StructureDefinition/ch-orf-composition#Composition.extension:dataEnterer"/>
                        <text value="Erfasser"/>
                        <type value="group"/>
                        <item>
                            <extension url="http://hl7.org/fhir/StructureDefinition/variable">
                                <valueExpression>
                                    <name value="linkIdPrefix"/>
                                    <language value="text/fhirpath"/>
                                    <expression value="'sender.dataenterer.practitioner.'"/>
                                </valueExpression>
                            </extension>
                            <linkId value="sender.dataenterer.practitioner"/>
                            <definition value="http://fhir.ch/ig/ch-core/StructureDefinition/ch-core-practitionerrole#PractitionerRole.practitioner"/>
                            <text value="Erfassende Person"/>
                            <type value="group"/>
                            <item>
                                <linkId value="sender.dataenterer.practitioner.title"/>
                                <definition value="http://fhir.ch/ig/ch-core/StructureDefinition/ch-core-practitioner#Practitioner.name.prefix"/>
                                <text value="Titel"/>
                                <type value="string"/>
                            </item>
                            <item>
                                <linkId value="sender.dataenterer.practitioner.familyName"/>
                                <definition value="http://fhir.ch/ig/ch-core/StructureDefinition/ch-core-practitioner#Practitioner.name.family"/>
                                <text value="Name"/>
                                <type value="string"/>
                            </item>
                            <item>
                                <linkId value="sender.dataenterer.practitioner.givenName"/>
                                <definition value="http://fhir.ch/ig/ch-core/StructureDefinition/ch-core-practitioner#Practitioner.name.given"/>
                                <text value="Vorname"/>
                                <type value="string"/>
                            </item>
                            <item>
                                <linkId value="sender.dataenterer.practitioner.phone"/>
                                <definition value="http://fhir.ch/ig/ch-core/StructureDefinition/ch-core-practitioner#Practitioner.telecom.value"/>
                                <text value="Telefon"/>
                                <type value="string"/>
                            </item>
                            <item>
                                <linkId value="sender.dataenterer.practitioner.email"/>
                                <definition value="http://fhir.ch/ig/ch-core/StructureDefinition/ch-core-practitioner#Practitioner.telecom.value"/>
                                <text value="E-Mail"/>
                                <type value="string"/>
                            </item>
                        </item>
                    </item>
                </item>
                <item>
                    <linkId value="receiverCopy"/>
                    <definition value="http://fhir.ch/ig/ch-orf/StructureDefinition/ch-orf-composition#Composition.extension:copyReceiver"/>
                    <text value="Kopieempfänger (Kopie dieses Auftrags und aller daraus resultierenden Resultate)"/>
                    <type value="group"/>
                    <item>
                        <linkId value="receiverCopy.practitionerRole"/>
                        <definition value="http://fhir.ch/ig/ch-core/StructureDefinition/ch-core-practitionerrole#PractitionerRole"/>
                        <text value="Gesundheitsfachperson oder -organisation"/>
                        <type value="group"/>
                        <repeats value="true"/>
                        <item>
                            <extension url="http://hl7.org/fhir/StructureDefinition/variable">
                                <valueExpression>
                                    <name value="linkIdPrefix"/>
                                    <language value="text/fhirpath"/>
                                    <expression value="'receiverCopy.practitionerRole.practitioner.'"/>
                                </valueExpression>
                            </extension>
                            <linkId value="receiverCopy.practitionerRole.practitioner"/>
                            <definition value="http://fhir.ch/ig/ch-core/StructureDefinition/ch-core-practitionerrole#PractitionerRole.practitioner"/>
                            <text value="Gesundheitsfachperson"/>
                            <type value="group"/>
                            <item>
                                <linkId value="receiverCopy.practitionerRole.practitioner.title"/>
                                <definition value="http://fhir.ch/ig/ch-core/StructureDefinition/ch-core-practitioner#Practitioner.name.prefix"/>
                                <text value="Titel"/>
                                <type value="string"/>
                            </item>
                            <item>
                                <linkId value="receiverCopy.practitionerRole.practitioner.familyName"/>
                                <definition value="http://fhir.ch/ig/ch-core/StructureDefinition/ch-core-practitioner#Practitioner.name.family"/>
                                <text value="Name"/>
                                <type value="string"/>
                            </item>
                            <item>
                                <linkId value="receiverCopy.practitionerRole.practitioner.givenName"/>
                                <definition value="http://fhir.ch/ig/ch-core/StructureDefinition/ch-core-practitioner#Practitioner.name.given"/>
                                <text value="Vorname"/>
                                <type value="string"/>
                            </item>
                            <item>
                                <linkId value="receiverCopy.practitionerRole.practitioner.phone"/>
                                <definition value="http://fhir.ch/ig/ch-core/StructureDefinition/ch-core-practitioner#Practitioner.telecom.value"/>
                                <text value="Telefon"/>
                                <type value="string"/>
                            </item>
                            <item>
                                <linkId value="receiverCopy.practitionerRole.practitioner.email"/>
                                <definition value="http://fhir.ch/ig/ch-core/StructureDefinition/ch-core-practitioner#Practitioner.telecom.value"/>
                                <text value="E-Mail"/>
                                <type value="string"/>
                            </item>
                        </item>
                        <item>
                            <extension url="http://hl7.org/fhir/StructureDefinition/variable">
                                <valueExpression>
                                    <name value="linkIdPrefix"/>
                                    <language value="text/fhirpath"/>
                                    <expression value="'receiverCopy.practitionerRole.organization.'"/>
                                </valueExpression>
                            </extension>
                            <linkId value="receiverCopy.practitionerRole.organization"/>
                            <definition value="http://fhir.ch/ig/ch-core/StructureDefinition/ch-core-practitionerrole#PractitionerRole.organization"/>
                            <text value="Gesundheitsorganisatiton"/>
                            <type value="group"/>
                            <item>
                                <linkId value="receiverCopy.practitionerRole.organization.name"/>
                                <definition value="http://fhir.ch/ig/ch-core/StructureDefinition/ch-core-organization#Organization.name"/>
                                <text value="Name der Organisation"/>
                                <type value="string"/>
                            </item>
                            <item>
                                <extension url="http://hl7.org/fhir/uv/sdc/StructureDefinition/sdc-questionnaire-initialExpression">
                                    <valueExpression>
                                        <language value="text/fhirpath"/>
                                        <expression value="%address.line"/>
                                    </valueExpression>
                                </extension>
                                <linkId value="receiverCopy.practitionerRole.organization.streetAddressLine"/>
                                <text value="Strasse, Hausnummer, Postfach etc."/>
                                <type value="string"/>
                                <repeats value="true"/>
                            </item>
                            <item>
                                <extension url="http://hl7.org/fhir/uv/sdc/StructureDefinition/sdc-questionnaire-initialExpression">
                                    <valueExpression>
                                        <language value="text/fhirpath"/>
                                        <expression value="%address.postalCode"/>
                                    </valueExpression>
                                </extension>
                                <linkId value="receiverCopy.practitionerRole.organization.postalCode"/>
                                <text value="PLZ"/>
                                <type value="string"/>
                            </item>
                            <item>
                                <extension url="http://hl7.org/fhir/uv/sdc/StructureDefinition/sdc-questionnaire-initialExpression">
                                    <valueExpression>
                                        <language value="text/fhirpath"/>
                                        <expression value="%address.city"/>
                                    </valueExpression>
                                </extension>
                                <linkId value="receiverCopy.practitionerRole.organization.city"/>
                                <text value="Ort"/>
                                <type value="string"/>
                            </item>
                            <item>
                                <extension url="http://hl7.org/fhir/uv/sdc/StructureDefinition/sdc-questionnaire-initialExpression">
                                    <valueExpression>
                                        <language value="text/fhirpath"/>
                                        <expression value="%address.country"/>
                                    </valueExpression>
                                </extension>
                                <linkId value="receiverCopy.practitionerRole.organization.country"/>
                                <text value="Land"/>
                                <type value="string"/>
                            </item>
                        </item>
                    </item>
                    <item>
                        <linkId value="receiverCopy.patient"/>
                        <definition value="http://fhir.ch/ig/ch-core/StructureDefinition/ch-core-patient#Patient"/>
                        <text value="Patient selbst"/>
                        <type value="boolean"/>
                    </item>
                    <item>
                        <linkId value="receiverCopy.relatedPerson"/>
                        <definition value="http://hl7.org/fhir/StructureDefinition/RelatedPerson#RelatedPerson"/>
                        <text value="Andere Person"/>
                        <type value="group"/>
                        <repeats value="true"/>
                        <item>
                            <extension url="http://hl7.org/fhir/StructureDefinition/variable">
                                <valueExpression>
                                    <name value="linkIdPrefix"/>
                                    <language value="text/fhirpath"/>
                                    <expression value="'receiverCopy.relatedPerson.'"/>
                                </valueExpression>
                            </extension>
                            <linkId value="receiverCopy.relatedPerson.familyName"/>
                            <definition value="http://hl7.org/fhir/StructureDefinition/RelatedPerson#RelatedPerson.name.family"/>
                            <text value="Name"/>
                            <type value="string"/>
                        </item>
                        <item>
                            <linkId value="receiverCopy.relatedPerson.givenName"/>
                            <definition value="http://hl7.org/fhir/StructureDefinition/RelatedPerson#RelatedPerson.name.given"/>
                            <text value="Vorname"/>
                            <type value="string"/>
                        </item>
                        <item>
                            <linkId value="receiverCopy.relatedPerson.phone"/>
                            <definition value="http://hl7.org/fhir/StructureDefinition/RelatedPerson#RelatedPerson.telecom.value"/>
                            <text value="Telefon"/>
                            <type value="string"/>
                            <repeats value="true"/>
                        </item>
                        <item>
                            <linkId value="receiverCopy.relatedPerson.email"/>
                            <definition value="http://hl7.org/fhir/StructureDefinition/RelatedPerson#RelatedPerson.telecom.value"/>
                            <text value="E-Mail"/>
                            <type value="string"/>
                        </item>
                        <item>
                            <extension url="http://hl7.org/fhir/uv/sdc/StructureDefinition/sdc-questionnaire-initialExpression">
                                <valueExpression>
                                    <language value="text/fhirpath"/>
                                    <expression value="%address.line"/>
                                </valueExpression>
                            </extension>
                            <linkId value="receiverCopy.relatedPerson.streetAddressLine"/>
                            <text value="Strasse, Hausnummer, Postfach etc."/>
                            <type value="string"/>
                            <repeats value="true"/>
                        </item>
                        <item>
                            <extension url="http://hl7.org/fhir/uv/sdc/StructureDefinition/sdc-questionnaire-initialExpression">
                                <valueExpression>
                                    <language value="text/fhirpath"/>
                                    <expression value="%address.postalCode"/>
                                </valueExpression>
                            </extension>
                            <linkId value="receiverCopy.relatedPerson.postalCode"/>
                            <text value="PLZ"/>
                            <type value="string"/>
                        </item>
                        <item>
                            <extension url="http://hl7.org/fhir/uv/sdc/StructureDefinition/sdc-questionnaire-initialExpression">
                                <valueExpression>
                                    <language value="text/fhirpath"/>
                                    <expression value="%address.city"/>
                                </valueExpression>
                            </extension>
                            <linkId value="receiverCopy.relatedPerson.city"/>
                            <text value="Ort"/>
                            <type value="string"/>
                        </item>
                        <item>
                            <extension url="http://hl7.org/fhir/uv/sdc/StructureDefinition/sdc-questionnaire-initialExpression">
                                <valueExpression>
                                    <language value="text/fhirpath"/>
                                    <expression value="%address.country"/>
                                </valueExpression>
                            </extension>
                            <linkId value="receiverCopy.relatedPerson.country"/>
                            <text value="Land"/>
                            <type value="string"/>
                        </item>
                    </item>
                </item>
                <item>
                    <linkId value="antecedentEpisodeOfCare"/>
                    <definition value="http://fhir.ch/ig/ch-orf/StructureDefinition/ch-orf-composition#Composition.extension:antecedentEpisodeOfCare"/>
                    <text value="Vorgängiger Aufenthalt in Spital / Heim"/>
                    <type value="group"/>
                    <item>
                        <linkId value="antecedentEpisodeOfCare.start"/>
                        <definition value="http://fhir.ch/ig/ch-orf/StructureDefinition/ch-orf-episodeofcare#EpisodeOfCare.Period.end"/>
                        <text value="Von"/>
                        <type value="dateTime"/>
                    </item>
                    <item>
                        <linkId value="antecedentEpisodeOfCare.end"/>
                        <definition value="http://fhir.ch/ig/ch-orf/StructureDefinition/ch-orf-episodeofcare#EpisodeOfCare.Period.end"/>
                        <text value="Bis"/>
                        <type value="dateTime"/>
                    </item>
                    <item>
                        <extension url="http://hl7.org/fhir/StructureDefinition/variable">
                            <valueExpression>
                                <name value="linkIdPrefix"/>
                                <language value="text/fhirpath"/>
                                <expression value="'antecedentEpisodeOfCare.managingOrganization.'"/>
                            </valueExpression>
                        </extension>
                        <linkId value="antecedentEpisodeOfCare.managingOrganization"/>
                        <definition value="http://fhir.ch/ig/ch-orf/StructureDefinition/ch-orf-episodeofcare#EpisodeOfCare.managingOrganization"/>
                        <text value="Spital /Heim"/>
                        <type value="group"/>
                        <item>
                            <linkId value="antecedentEpisodeOfCare.managingOrganization.name"/>
                            <definition value="http://fhir.ch/ig/ch-core/StructureDefinition/ch-core-organization#Organization.name"/>
                            <text value="Name der Organisation"/>
                            <type value="string"/>
                        </item>
                        <item>
                            <extension url="http://hl7.org/fhir/uv/sdc/StructureDefinition/sdc-questionnaire-initialExpression">
                                <valueExpression>
                                    <language value="text/fhirpath"/>
                                    <expression value="%address.line"/>
                                </valueExpression>
                            </extension>
                            <linkId value="antecedentEpisodeOfCare.managingOrganization.streetAddressLine"/>
                            <text value="Strasse, Hausnummer, Postfach etc."/>
                            <type value="string"/>
                            <repeats value="true"/>
                        </item>
                        <item>
                            <extension url="http://hl7.org/fhir/uv/sdc/StructureDefinition/sdc-questionnaire-initialExpression">
                                <valueExpression>
                                    <language value="text/fhirpath"/>
                                    <expression value="%address.postalCode"/>
                                </valueExpression>
                            </extension>
                            <linkId value="antecedentEpisodeOfCare.managingOrganization.postalCode"/>
                            <text value="PLZ"/>
                            <type value="string"/>
                        </item>
                        <item>
                            <extension url="http://hl7.org/fhir/uv/sdc/StructureDefinition/sdc-questionnaire-initialExpression">
                                <valueExpression>
                                    <language value="text/fhirpath"/>
                                    <expression value="%address.city"/>
                                </valueExpression>
                            </extension>
                            <linkId value="antecedentEpisodeOfCare.managingOrganization.city"/>
                            <text value="Ort"/>
                            <type value="string"/>
                        </item>
                        <item>
                            <extension url="http://hl7.org/fhir/uv/sdc/StructureDefinition/sdc-questionnaire-initialExpression">
                                <valueExpression>
                                    <language value="text/fhirpath"/>
                                    <expression value="%address.country"/>
                                </valueExpression>
                            </extension>
                            <linkId value="antecedentEpisodeOfCare.managingOrganization.country"/>
                            <text value="Land"/>
                            <type value="string"/>
                        </item>
                    </item>
                </item>
                <item>
                    <linkId value="appointment"/>
                    <definition value="http://fhir.ch/ig/ch-orf/StructureDefinition/ch-orf-servicerequest#ServiceRequest.extension:locationAndTime"/>
                    <text value="Ort und Zeit der Durchführung der angeforderten Leistung"/>
                    <type value="group"/>
                    <repeats value="true"/>
                    <item>
                        <extension url="http://hl7.org/fhir/StructureDefinition/variable">
                            <valueExpression>
                                <name value="linkIdPrefix"/>
                                <language value="text/fhirpath"/>
                                <expression value="'appointment.location.'"/>
                            </valueExpression>
                        </extension>
                        <linkId value="appointment.location"/>
                        <definition value="http://fhir.ch/ig/ch-orf/StructureDefinition/ch-orf-appointment#Appointment.participant.actor"/>
                        <text value="Ort der Durchführung"/>
                        <type value="group"/>
                        <item>
                            <linkId value="appointment.location.name"/>
                            <definition value="http://fhir.ch/ig/ch-orf/StructureDefinition/ch-orf-location#Location.name"/>
                            <text value="Name"/>
                            <type value="string"/>
                            <required value="true"/>
                        </item>
                        <item>
                            <linkId value="appointment.location.phone"/>
                            <definition value="http://fhir.ch/ig/ch-orf/StructureDefinition/ch-orf-location#Location.telecom.value"/>
                            <text value="Telefon"/>
                            <type value="string"/>
                        </item>
                        <item>
                            <linkId value="appointment.location.email"/>
                            <definition value="http://fhir.ch/ig/ch-orf/StructureDefinition/ch-orf-location#Location.telecom.value"/>
                            <text value="E-Mail"/>
                            <type value="string"/>
                        </item>
                        <item>
                            <extension url="http://hl7.org/fhir/uv/sdc/StructureDefinition/sdc-questionnaire-initialExpression">
                                <valueExpression>
                                    <language value="text/fhirpath"/>
                                    <expression value="%address.line"/>
                                </valueExpression>
                            </extension>
                            <linkId value="appointment.location.streetAddressLine"/>
                            <text value="Strasse, Hausnummer, Postfach etc."/>
                            <type value="string"/>
                            <repeats value="true"/>
                        </item>
                        <item>
                            <extension url="http://hl7.org/fhir/uv/sdc/StructureDefinition/sdc-questionnaire-initialExpression">
                                <valueExpression>
                                    <language value="text/fhirpath"/>
                                    <expression value="%address.postalCode"/>
                                </valueExpression>
                            </extension>
                            <linkId value="appointment.location.postalCode"/>
                            <text value="PLZ"/>
                            <type value="string"/>
                        </item>
                        <item>
                            <extension url="http://hl7.org/fhir/uv/sdc/StructureDefinition/sdc-questionnaire-initialExpression">
                                <valueExpression>
                                    <language value="text/fhirpath"/>
                                    <expression value="%address.city"/>
                                </valueExpression>
                            </extension>
                            <linkId value="appointment.location.city"/>
                            <text value="Ort"/>
                            <type value="string"/>
                        </item>
                        <item>
                            <extension url="http://hl7.org/fhir/uv/sdc/StructureDefinition/sdc-questionnaire-initialExpression">
                                <valueExpression>
                                    <language value="text/fhirpath"/>
                                    <expression value="%address.country"/>
                                </valueExpression>
                            </extension>
                            <linkId value="appointment.location.country"/>
                            <text value="Land"/>
                            <type value="string"/>
                        </item>
                    </item>
                    <item>
                        <linkId value="appointment.requestedPeriod"/>
                        <definition value="http://fhir.ch/ig/ch-orf/StructureDefinition/ch-orf-appointment#Appointment.requestedPeriod"/>
                        <text value="Datum und Zeit, wann der Termin bevorzugt geplant werden soll"/>
                        <type value="group"/>
                        <item>
                            <linkId value="appointment.requestedPeriod.start"/>
                            <definition value="http://fhir.ch/ig/ch-orf/StructureDefinition/ch-orf-appointment#Appointment.requestedPeriod.start"/>
                            <text value="Von"/>
                            <type value="dateTime"/>
                        </item>
                        <item>
                            <linkId value="appointment.requestedPeriod.end"/>
                            <definition value="http://fhir.ch/ig/ch-orf/StructureDefinition/ch-orf-appointment#Appointment.requestedPeriod.end"/>
                            <text value="Bis"/>
                            <type value="dateTime"/>
                        </item>
                    </item>
                    <item>
                        <linkId value="appointment.status"/>
                        <definition value="http://fhir.ch/ig/ch-orf/StructureDefinition/ch-orf-appointment#Appointment.status"/>
                        <text value="Status"/>
                        <type value="choice"/>
                        <required value="true"/>
                        <answerOption>
                            <valueCoding>
                                <system value="http://hl7.org/fhir/appointmentstatus"/>
                                <code value="proposed"/>
                                <display value="Wunsch des Patienten (vorgeschlagen)"/>
                            </valueCoding>
                            <initialSelected value="true"/>
                        </answerOption>
                        <answerOption>
                            <valueCoding>
                                <system value="http://hl7.org/fhir/appointmentstatus"/>
                                <code value="pending"/>
                                <display value="Vom Patienten bestätigt, aber vom Leistungserbringer noch nicht (ausstehend)"/>
                            </valueCoding>
                        </answerOption>
                        <answerOption>
                            <valueCoding>
                                <system value="http://hl7.org/fhir/appointmentstatus"/>
                                <code value="booked"/>
                                <display value="Vom Patienten und Leistungserbringer bestätigt (gebucht)"/>
                            </valueCoding>
                        </answerOption>
                    </item>
                    <item>
                        <linkId value="appointment.patientInstruction"/>
                        <definition value="http://fhir.ch/ig/ch-orf/StructureDefinition/ch-orf-appointment#Appointment.patientInstruction"/>
                        <text value="Patienteninformation für diesen Termin"/>
                        <type value="string"/>
                    </item>
                </item>
                <item>
                    <linkId value="consent"/>
                    <definition value="http://fhir.ch/ig/ch-orf/StructureDefinition/ch-orf-composition#Composition.extension:patientConsent"/>
                    <text value="Einverständniserklärung"/>
                    <type value="group"/>
                    <item>
                        <linkId value="patient.consent.statement"/>
                        <text value="Ist der Patient über die Anmeldung informiert und explizit einverstanden?"/>
                        <type value="choice"/>
                        <answerOption>
                            <valueCoding>
                                <system value="http://fhir.ch/ig/ch-orf/CodeSystem/ch-orf-cs-consentstatus"/>
                                <code value="ExplicitAgreement"/>
                                <display value="Patient is informed and has explicitly agreed"/>
                            </valueCoding>
                        </answerOption>
                        <answerOption>
                            <valueCoding>
                                <system value="http://fhir.ch/ig/ch-orf/CodeSystem/ch-orf-cs-consentstatus"/>
                                <code value="Other"/>
                                <display value="Other situation such as 'implicit agreement', 'agreed by legal guardian'  etc."/>
                            </valueCoding>
                        </answerOption>
                        <item>
                            <linkId value="patient.consent.statement.note"/>
                            <text value="Anmerkung"/>
                            <type value="string"/>
                        </item>
                    </item>
                </item>
                <item>
                    <linkId value="note"/>
                    <text value="Bemerkungen"/>
                    <type value="group"/>
                    <repeats value="true"/>
                    <item>
                        <linkId value="note.text"/>
                        <definition value="http://fhir.ch/ig/ch-orf/StructureDefinition/ch-orf-servicerequest#ServiceRequest.note.text"/>
                        <text value="Kommentar"/>
                        <type value="string"/>
                    </item>
                </item>
            </Questionnaire>
        </resource>
    </entry>
</Bundle>