<Bundle 
  xmlns="http://hl7.org/fhir">
    <id value="bundle-order-referral-form"/>
    <meta>
        <profile value="http://fhir.ch/ig/ch-orf/StructureDefinition/ch-orf-document" />
    </meta>
    <language value="de-CH"/>
      <identifier>
    <system value="urn:ietf:rfc:3986"/>
    <value value="urn:uuid:961aba74-a098-44ad-af05-aa6d0dbc4021"/>
  </identifier>
 <type value="document"/>
  <timestamp value="2023-06-12T20:41:06+00:00"/>
  <entry>
    <fullUrl value="urn:uuid:2744e113-d29e-40b7-af6e-c19a3a8a1c7c"/>
    <resource>
      <Composition>
      <language value="de-CH"/>
        <extension url="http://fhir.ch/ig/ch-orf/StructureDefinition/ch-orf-precedentdocument">
          <valueIdentifier>
            <system value="urn:ietf:rfc:3986"/>
            <value value="urn:uuid:1622f2fb-6ba3-4532-9aed-35b158def187"/>
          </valueIdentifier>
        </extension>
        <extension url="http://fhir.ch/ig/ch-orf/StructureDefinition/ch-orf-urgentnoficationcontactforthisdocument">
          <valueReference>
            <reference value="urn:uuid:a5c91b7a-8c58-4a71-a1bc-08bd093681b8"/>
          </valueReference>
        </extension>
        <extension url="http://fhir.ch/ig/ch-orf/StructureDefinition/ch-orf-urgentnoficationcontactfortheresponsetothisdocument">
          <valueReference>
            <reference value="urn:uuid:9fec93d4-ac30-4d89-8975-e5e2ebabd28a"/>
          </valueReference>
        </extension>
        <extension url="http://fhir.ch/ig/ch-orf/StructureDefinition/ch-orf-receiver">
          <valueReference>
            <reference value="urn:uuid:305422f3-dbfb-4ce0-bd12-e26d0024f550"/>
          </valueReference>
        </extension>
        <extension url="http://fhir.ch/ig/ch-orf/StructureDefinition/ch-orf-initiator">
          <extension url="ch-orf-personalrelation">
            <valueCoding>
              <system value="http://snomed.info/sct"/>
              <code value="65616008"/>
            </valueCoding>
          </extension>
          <extension url="ch-orf-legalrelation">
            <valueCoding>
              <system value="http://snomed.info/sct"/>
              <code value="373068000"/>
            </valueCoding>
          </extension>
          <extension url="ch-orf-personorganization">
            <valueReference>
              <reference value="urn:uuid:c1ed3d1d-8aff-401f-ae87-16e178323a10"/>
            </valueReference>
          </extension>
        </extension>
        <extension url="http://fhir.ch/ig/ch-core/StructureDefinition/ch-ext-epr-dataenterer">
          <extension url="enterer">
            <valueReference>
              <reference value="urn:uuid:40300c5d-0259-438a-88b8-4b24a9c6bf79"/>
            </valueReference>
          </extension>
        </extension>
        <extension url="http://fhir.ch/ig/ch-orf/StructureDefinition/ch-orf-copyreceiver">
          <valueReference>
            <reference value="urn:uuid:b7fdf56d-3bc9-48d9-b470-d1cafb8a0716"/>
          </valueReference>
        </extension>
        <extension url="http://fhir.ch/ig/ch-orf/StructureDefinition/ch-orf-copyreceiver">
          <valueReference>
            <reference value="urn:uuid:aaddb7b1-eb51-4426-8182-42f66fbf24d0"/>
          </valueReference>
        </extension>
        <extension url="http://fhir.ch/ig/ch-orf/StructureDefinition/ch-orf-antecedentepisodeofcare">
          <valueReference>
            <reference value="urn:uuid:9ba0fe13-1d13-4785-b408-1c69dda0d4c2"/>
          </valueReference>
        </extension>
        <status value="final"/>
        <type>
          <coding>
            <system value="http://snomed.info/sct"/>
            <code value="419891008"/>
          </coding>
        </type>
        <category>
          <coding>
            <system value="http://snomed.info/sct"/>
            <code value="721963009"/>
          </coding>
        </category>
        <subject>
          <reference value="urn:uuid:aaddb7b1-eb51-4426-8182-42f66fbf24d0"/>
        </subject>
        <date value="2023-06-12T20:41:06+00:00"/>
        <author>
          <reference value="urn:uuid:4388146d-9909-4613-b0c5-2ac3de31dfb8"/>
        </author>
        <title value="Order and Referral by Form"/>
        <section>
          <title value="Order-Referral"/>
          <code>
            <coding>
              <system value="http://loinc.org"/>
              <code value="93037-0"/>
              <display value="Portable medical order form"/>
            </coding>
          </code>
          <entry>
            <reference value="urn:uuid:e65f3e97-3e93-400f-9624-ce9fd765b231"/>
          </entry>
          <entry>
            <reference value="urn:uuid:2f9f6d08-6fbc-4659-af0d-abdae83da63f"/>
          </entry>
          <entry>
            <reference value="http://fhir.ch/ig/ch-orf/Questionnaire/order-referral-form"/>
          </entry>
        </section>
      </Composition>
    </resource>
  </entry>
  <entry>
    <fullUrl value="urn:uuid:aaddb7b1-eb51-4426-8182-42f66fbf24d0"/>
    <resource>
      <Patient>
        <language value="de-CH"/>
        <identifier>
          <type>
            <coding>
              <system value="http://terminology.hl7.org/CodeSystem/v2-0203"/>
              <code value="MR"/>
            </coding>
          </type>
          <system value="urn:oid:2.999.1.2.3.4"/>
          <value value="11.22.33.4567"/>
        </identifier>
        <name>
          <family value="Musterfrau"/>
          <given value="Erika"/>
        </name>
        <name>
          <use value="maiden"/>
          <family value="Vormusterfrau"/>
        </name>
        <telecom>
          <system value="phone"/>
          <value value="079 979 79 79"/>
        </telecom>
        <telecom>
          <system value="email"/>
          <value value="erika@musterfrau.ch"/>
        </telecom>
        <gender value="female"/>
        <birthDate value="1970-03-14"/>
        <address>
          <line value="Musterweg"/>
          <line value="6a"/>
          <city value="Zürich"/>
          <postalCode value="8000"/>
          <country value="Schweiz"/>
        </address>
        <maritalStatus>
          <coding>
            <system value="http://fhir.ch/ig/ch-core/CodeSystem/ech-11-maritalstatus"/>
            <code value="3"/>
            <display value="verwitwet"/>
          </coding>
        </maritalStatus>
        <contact>
          <relationship>
            <text value="Guter Freund"/>
          </relationship>
          <name>
            <family value="Freund"/>
            <given value="Max"/>
          </name>
          <telecom>
            <system value="email"/>
            <value value="max@freund.ch"/>
          </telecom>
        </contact>
        <communication>
          <language>
            <coding>
              <system value="urn:ietf:bcp:47"/>
              <code value="de-CH"/>
            </coding>
          </language>
          <preferred value="true"/>
        </communication>
        <generalPractitioner>
          <reference value="urn:uuid:11a6e0bc-534a-478a-b729-5d336601e789"/>
        </generalPractitioner>
      </Patient>
    </resource>
  </entry>
  <entry>
    <fullUrl value="urn:uuid:e65f3e97-3e93-400f-9624-ce9fd765b231"/>
    <resource>
      <QuestionnaireResponse>
        <meta>
          <profile value="http://fhir.ch/ig/ch-orf/StructureDefinition/ch-orf-questionnaireresponse"/>
        </meta>
        <language value="de-CH"/>
        <questionnaire value="http://fhir.ch/ig/ch-orf/Questionnaire/order-referral-form"/>
        <status value="completed"/>
        <item>
          <linkId value="order"/>
          <text value="Auftrag"/>
          <item>
            <linkId value="order.placerOrderIdentifier"/>
            <text value="Auftragsnummer des Auftraggebers"/>
            <answer>
              <valueString value="123"/>
            </answer>
          </item>
          <item>
            <linkId value="order.placerOrderIdentifierDomain"/>
            <text value="Identifier Domain der Auftragsnummer des Auftraggebers"/>
            <answer>
              <valueString value="urn:oid:2.999.1.3.4.5.6.7"/>
            </answer>
          </item>
          <item>
            <linkId value="order.fillerOrderIdentifier"/>
            <text value="Auftragsnummer des Auftragsempfängers"/>
            <answer>
              <valueString value="456"/>
            </answer>
          </item>
          <item>
            <linkId value="order.fillerOrderIdentifierDomain"/>
            <text value="Identifier Domain der Auftragsnummer des Auftragsempfängers"/>
            <answer>
              <valueString value="urn:oid:2.999.7.8.9.10.11"/>
            </answer>
          </item>
          <item>
            <linkId value="order.precedentDocumentIdentifier"/>
            <text value="Identifier des Vorgängerdokuments"/>
            <answer>
              <valueString value="1622f2fb-6ba3-4532-9aed-35b158def187"/>
            </answer>
          </item>
          <item>
            <linkId value="order.notificationContactDocument"/>
            <text value="Dringender Benachrichtigungskontakt für dieses Dokument"/>
            <item>
              <linkId value="order.notificationContactDocument.practitioner"/>
              <text value="Zu benachrichtigende Person"/>
              <item>
                <linkId value="order.notificationContactDocument.practitioner.title"/>
                <text value="Titel"/>
                <answer>
                  <valueString value="Dr. med."/>
                </answer>
              </item>
              <item>
                <linkId value="order.notificationContactDocument.practitioner.familyName"/>
                <text value="Name"/>
                <answer>
                  <valueString value="Röntgen"/>
                </answer>
              </item>
              <item>
                <linkId value="order.notificationContactDocument.practitioner.givenName"/>
                <text value="Vorname"/>
                <answer>
                  <valueString value="Hans"/>
                </answer>
              </item>
              <item>
                <linkId value="order.notificationContactDocument.practitioner.phone"/>
                <text value="Telefon"/>
                <answer>
                  <valueString value="044 412 00 99"/>
                </answer>
              </item>
              <item>
                <linkId value="order.notificationContactDocument.practitioner.email"/>
                <text value="E-Mail"/>
                <answer>
                  <valueString value="hans.roentgen@kantonsspital.ch"/>
                </answer>
              </item>
            </item>
          </item>
          <item>
            <linkId value="order.notificationContactDocumentResponse"/>
            <text value="Dringender Benachrichtigungskontakt für die Antwort auf dieses Dokument"/>
            <item>
              <linkId value="order.notificationContactDocumentResponse.practitioner"/>
              <text value="Zu benachrichtigende Person"/>
              <item>
                <linkId value="order.notificationContactDocumentResponse.practitioner.title"/>
                <text value="Titel"/>
                <answer>
                  <valueString value="Dr. med."/>
                </answer>
              </item>
              <item>
                <linkId value="order.notificationContactDocumentResponse.practitioner.familyName"/>
                <text value="Name"/>
                <answer>
                  <valueString value="Meier"/>
                </answer>
              </item>
              <item>
                <linkId value="order.notificationContactDocumentResponse.practitioner.givenName"/>
                <text value="Vorname"/>
                <answer>
                  <valueString value="Sabine"/>
                </answer>
              </item>
              <item>
                <linkId value="order.notificationContactDocumentResponse.practitioner.phone"/>
                <text value="Telefon"/>
                <answer>
                  <valueString value="044 333 22 11"/>
                </answer>
              </item>
              <item>
                <linkId value="order.notificationContactDocumentResponse.practitioner.email"/>
                <text value="E-Mail"/>
                <answer>
                  <valueString value="sabine.meier@praxisseeblick.ch"/>
                </answer>
              </item>
            </item>
          </item>
          <item>
            <linkId value="order.priority"/>
            <text value="Auftragspriorität"/>
            <answer>
              <valueCoding>
                <system value="http://hl7.org/fhir/request-priority"/>
                <code value="routine"/>
              </valueCoding>
            </answer>
          </item>
        </item>
        <item>
          <linkId value="receiver"/>
          <text value="Empfänger"/>
          <item>
            <linkId value="receiver.practitioner"/>
            <text value="Empfangende Person"/>
            <item>
              <linkId value="receiver.practitioner.title"/>
              <text value="Titel"/>
              <answer>
                <valueString value="Dr. med."/>
              </answer>
            </item>
            <item>
              <linkId value="receiver.practitioner.familyName"/>
              <text value="Name"/>
              <answer>
                <valueString value="Röntgen"/>
              </answer>
            </item>
            <item>
              <linkId value="receiver.practitioner.givenName"/>
              <text value="Vorname"/>
              <answer>
                <valueString value="Hans"/>
              </answer>
            </item>
            <item>
              <linkId value="receiver.practitioner.gln"/>
              <text value="GLN"/>
              <answer>
                <valueString value="7601000201041"/>
              </answer>
            </item>
            <item>
              <linkId value="receiver.practitioner.zsr"/>
              <text value="ZSR (fr/it: RCC)"/>
              <answer>
                <valueString value="Y604801"/>
              </answer>
            </item>
            <item>
              <linkId value="receiver.practitioner.phone"/>
              <text value="Telefon"/>
              <answer>
                <valueString value="044 412 00 99"/>
              </answer>
            </item>
            <item>
              <linkId value="receiver.practitioner.email"/>
              <text value="E-Mail"/>
              <answer>
                <valueString value="hans.roentgen@kantonsspital.ch"/>
              </answer>
            </item>
          </item>
          <item>
            <linkId value="receiver.organization"/>
            <text value="Empfangende Organisation"/>
            <item>
              <linkId value="receiver.organization.name"/>
              <text value="Name der Organisation"/>
              <answer>
                <valueString value="Kantonsspital"/>
              </answer>
            </item>
            <item>
              <linkId value="receiver.organization.streetAddressLine"/>
              <text value="Strasse, Hausnummer, Postfach etc."/>
              <answer>
                <valueString value="Kantonsstrasse 14"/>
              </answer>
              <answer>
                <valueString value="Postfach 14"/>
              </answer>
            </item>
            <item>
              <linkId value="receiver.organization.postalCode"/>
              <text value="PLZ"/>
              <answer>
                <valueString value="8000"/>
              </answer>
            </item>
            <item>
              <linkId value="receiver.organization.city"/>
              <text value="Ort"/>
              <answer>
                <valueString value="Zürich"/>
              </answer>
            </item>
            <item>
              <linkId value="receiver.organization.country"/>
              <text value="Land"/>
              <answer>
                <valueString value="Schweiz"/>
              </answer>
            </item>
          </item>
        </item>
        <item>
          <linkId value="initiator"/>
          <text value="Initiant dieser Anmeldung"/>
          <item>
            <linkId value="initiator.legalrelation"/>
            <text value="Juristische Beziehung zum Patienten"/>
            <answer>
              <valueCoding>
                <system value="http://snomed.info/sct"/>
                <code value="373068000"/>
              </valueCoding>
            </answer>
          </item>
          <item>
            <linkId value="initiator.personalrelation"/>
            <text value="Persönliche Beziehung zum Patienten?"/>
            <answer>
              <valueCoding>
                <system value="http://snomed.info/sct"/>
                <code value="65616008"/>
              </valueCoding>
            </answer>
          </item>
          <item>
            <linkId value="initiator.relatedPerson"/>
            <text value="Andere Person"/>
            <item>
              <linkId value="initiator.relatedPerson.familyName"/>
              <text value="Name"/>
              <answer>
                <valueString value="Musterfrau"/>
              </answer>
            </item>
            <item>
              <linkId value="initiator.relatedPerson.givenName"/>
              <text value="Vorname"/>
              <answer>
                <valueString value="Fritz"/>
              </answer>
            </item>
          </item>
        </item>
        <item>
          <linkId value="patient"/>
          <text value="Patient"/>
          <item>
            <linkId value="patient.familyName"/>
            <text value="Name"/>
            <answer>
              <valueString value="Musterfrau"/>
            </answer>
          </item>
          <item>
            <linkId value="patient.maidenName"/>
            <text value="Ledigname"/>
            <answer>
              <valueString value="Vormusterfrau"/>
            </answer>
          </item>
          <item>
            <linkId value="patient.givenName"/>
            <text value="Vorname"/>
            <answer>
              <valueString value="Erika"/>
            </answer>
          </item>
          <item>
            <linkId value="patient.localPid"/>
            <text value="Lokale Patienten-ID"/>
            <answer>
              <valueString value="11.22.33.4567"/>
            </answer>
          </item>
          <item>
            <linkId value="patient.localPidDomain"/>
            <text value="Lokale Patienten-ID Domain"/>
            <answer>
              <valueString value="urn:oid:2.999.1.2.3.4"/>
            </answer>
          </item>
          <item>
            <linkId value="patient.birthDate"/>
            <text value="Geburtsdatum"/>
            <answer>
              <valueDate value="1970-03-14"/>
            </answer>
          </item>
          <item>
            <linkId value="patient.gender"/>
            <text value="Geschlecht"/>
            <answer>
              <valueCoding>
                <system value="http://hl7.org/fhir/administrative-gender"/>
                <code value="female"/>
              </valueCoding>
            </answer>
          </item>
          <item>
            <linkId value="patient.maritalStatus"/>
            <text value="Zivilstand"/>
            <answer>
              <valueCoding>
                <system value="http://fhir.ch/ig/ch-core/CodeSystem/ech-11-maritalstatus"/>
                <code value="3"/>
                <display value="verwitwet"/>
              </valueCoding>
            </answer>
          </item>
          <item>
            <linkId value="patient.phone"/>
            <text value="Telefon"/>
            <answer>
              <valueString value="079 979 79 79"/>
            </answer>
          </item>
          <item>
            <linkId value="patient.email"/>
            <text value="E-Mail"/>
            <answer>
              <valueString value="erika@musterfrau.ch"/>
            </answer>
          </item>
          <item>
            <linkId value="patient.streetAddressLine"/>
            <text value="Strasse, Hausnummer, Postfach etc."/>
            <answer>
              <valueString value="Musterweg"/>
            </answer>
            <answer>
              <valueString value="6a"/>
            </answer>
          </item>
          <item>
            <linkId value="patient.postalCode"/>
            <text value="PLZ"/>
            <answer>
              <valueString value="8000"/>
            </answer>
          </item>
          <item>
            <linkId value="patient.city"/>
            <text value="Ort"/>
            <answer>
              <valueString value="Zürich"/>
            </answer>
          </item>
          <item>
            <linkId value="patient.country"/>
            <text value="Land"/>
            <answer>
              <valueString value="Schweiz"/>
            </answer>
          </item>
          <item>
            <linkId value="patient.languageOfCorrespondence"/>
            <text value="Korrespondenzsprache"/>
            <answer>
              <valueCoding>
                <system value="urn:ietf:bcp:47"/>
                <code value="de-CH"/>
              </valueCoding>
            </answer>
          </item>
          <item>
            <linkId value="patient.contactperson"/>
            <text value="Kontaktperson"/>
            <item>
              <linkId value="patient.contactperson.relationship"/>
              <text value="Beziehung"/>
              <answer>
                <valueString value="Guter Freund"/>
              </answer>
            </item>
            <item>
              <linkId value="patient.contactperson.familyName"/>
              <text value="Name"/>
              <answer>
                <valueString value="Freund"/>
              </answer>
            </item>
            <item>
              <linkId value="patient.contactperson.givenName"/>
              <text value="Vorname"/>
              <answer>
                <valueString value="Max"/>
              </answer>
            </item>
            <item>
              <linkId value="patient.contactperson.phone"/>
              <text value="Telefon"/>
              <answer>
                <valueString value="079 111 22 33"/>
              </answer>
            </item>
            <item>
              <linkId value="patient.contactperson.email"/>
              <text value="E-Mail"/>
              <answer>
                <valueString value="max@freund.ch"/>
              </answer>
            </item>
          </item>
          <item>
            <linkId value="familydoctor"/>
            <text value="Hausarzt"/>
            <item>
              <linkId value="familydoctor.practitioner"/>
              <text value="Hausarzt Person"/>
              <item>
                <linkId value="familydoctor.practitioner.title"/>
                <text value="Titel"/>
                <answer>
                  <valueString value="Dr. med."/>
                </answer>
              </item>
              <item>
                <linkId value="familydoctor.practitioner.familyName"/>
                <text value="Name"/>
                <answer>
                  <valueString value="Meier"/>
                </answer>
              </item>
              <item>
                <linkId value="familydoctor.practitioner.givenName"/>
                <answer>
                  <valueString value="Sabine"/>
                </answer>
              </item>
            </item>
          </item>
        </item>
        <item>
          <linkId value="requestedEncounter"/>
          <text value="Patientenaufnahme"/>
          <item>
            <linkId value="requestedEncounter.class"/>
            <text value="Voraussichtlich: Ambulant / Stationär / Notfall"/>
            <answer>
              <valueCoding>
                <system value="http://terminology.hl7.org/CodeSystem/v3-ActCode"/>
                <code value="EMER"/>
              </valueCoding>
            </answer>
          </item>
          <item>
            <linkId value="requestedEncounter.desiredAccommodation"/>
            <text value="Zimmerkategorie"/>
            <answer>
              <valueCoding>
                <system value="http://fhir.ch/ig/ch-core/CodeSystem/bfs-medstats-21-encountertype"/>
                <code value="2"/>
                <display value="halbprivat"/>
              </valueCoding>
            </answer>
          </item>
        </item>
        <item>
          <linkId value="coverage"/>
          <text value="Kostenträger"/>
          <item>
            <linkId value="coverage.kvg"/>
            <text value="Krankenkasse nach KVG (fr/it: LAMal)"/>
            <item>
              <linkId value="coverage.kvg.name"/>
              <text value="Name der Versicherung"/>
              <answer>
                <valueString value="Sanitas"/>
              </answer>
            </item>
            <item>
              <linkId value="coverage.kvg.insuranceCardNumber"/>
              <text value="Kennnummer der Versichertenkarte"/>
              <answer>
                <valueString value="80756015090002647590"/>
              </answer>
            </item>
          </item>
        </item>
        <item>
          <linkId value="sender"/>
          <text value="Absender"/>
          <item>
            <linkId value="sender.author"/>
            <text value="Verantwortlicher"/>
            <item>
              <linkId value="sender.author.practitioner"/>
              <text value="Verantwortliche Person"/>
              <item>
                <linkId value="sender.author.practitioner.title"/>
                <text value="Titel"/>
                <answer>
                  <valueString value="Dr. med."/>
                </answer>
              </item>
              <item>
                <linkId value="sender.author.practitioner.familyName"/>
                <text value="Name"/>
                <answer>
                  <valueString value="Meier"/>
                </answer>
              </item>
              <item>
                <linkId value="sender.author.practitioner.givenName"/>
                <text value="Vorname"/>
                <answer>
                  <valueString value="Sabine"/>
                </answer>
              </item>
              <item>
                <linkId value="sender.author.practitioner.gln"/>
                <text value="GLN"/>
                <answer>
                  <valueString value="7601000618627"/>
                </answer>
              </item>
              <item>
                <linkId value="sender.author.practitioner.zsr"/>
                <text value="ZSR (fr/it: RCC)"/>
                <answer>
                  <valueString value="L248519"/>
                </answer>
              </item>
              <item>
                <linkId value="sender.author.practitioner.phone"/>
                <text value="Telefon"/>
                <answer>
                  <valueString value="044 333 22 11"/>
                </answer>
              </item>
              <item>
                <linkId value="sender.author.practitioner.email"/>
                <text value="E-Mail"/>
                <answer>
                  <valueString value="sabine.meier@praxisseeblick.ch"/>
                </answer>
              </item>
            </item>
            <item>
              <linkId value="sender.author.organization"/>
              <text value="Verantwortliche Organisation"/>
              <item>
                <linkId value="sender.author.organization.name"/>
                <text value="Name der Organisation"/>
                <answer>
                  <valueString value="Praxis Seeblick"/>
                </answer>
              </item>
              <item>
                <linkId value="sender.author.organization.streetAddressLine"/>
                <text value="Strasse, Hausnummer, Postfach etc."/>
                <answer>
                  <valueString value="Seestrasse 133"/>
                </answer>
                <answer>
                  <valueString value="Haus C"/>
                </answer>
              </item>
              <item>
                <linkId value="sender.author.organization.postalCode"/>
                <text value="PLZ"/>
                <answer>
                  <valueString value="8000"/>
                </answer>
              </item>
              <item>
                <linkId value="sender.author.organization.city"/>
                <text value="Ort"/>
                <answer>
                  <valueString value="Zürich"/>
                </answer>
              </item>
              <item>
                <linkId value="sender.author.organization.country"/>
                <text value="Land"/>
                <answer>
                  <valueString value="Schweiz"/>
                </answer>
              </item>
            </item>
          </item>
          <item>
            <linkId value="sender.dataenterer"/>
            <text value="Erfasser"/>
            <item>
              <linkId value="sender.dataenterer.practitioner"/>
              <text value="Erfassende Person"/>
              <item>
                <linkId value="sender.dataenterer.practitioner.familyName"/>
                <text value="Name"/>
                <answer>
                  <valueString value="Boss"/>
                </answer>
              </item>
              <item>
                <linkId value="sender.dataenterer.practitioner.givenName"/>
                <text value="Vorname"/>
                <answer>
                  <valueString value="Stabilo"/>
                </answer>
              </item>
              <item>
                <linkId value="sender.dataenterer.practitioner.phone"/>
                <text value="Telefon"/>
                <answer>
                  <valueString value="044 333 22 12"/>
                </answer>
              </item>
              <item>
                <linkId value="sender.dataenterer.practitioner.email"/>
                <text value="E-Mail"/>
                <answer>
                  <valueString value="stabilo.boss@praxisseeblick.ch"/>
                </answer>
              </item>
            </item>
          </item>
        </item>
        <item>
          <linkId value="receiverCopy"/>
          <text value="Kopieempfänger (Kopie dieses Auftrags und aller daraus resultierenden Resultate)"/>
          <item>
            <linkId value="receiverCopy.practitionerRole"/>
            <text value="Gesundheitsfachperson oder -organisation"/>
            <item>
              <linkId value="receiverCopy.practitionerRole.practitioner"/>
              <text value="Gesundheitsfachperson"/>
              <item>
                <linkId value="receiverCopy.practitionerRole.practitioner.title"/>
                <text value="Titel"/>
                <answer>
                  <valueString value="Dr. med."/>
                </answer>
              </item>
              <item>
                <linkId value="receiverCopy.practitionerRole.practitioner.familyName"/>
                <text value="Name"/>
                <answer>
                  <valueString value="Meier"/>
                </answer>
              </item>
              <item>
                <linkId value="receiverCopy.practitionerRole.practitioner.givenName"/>
                <text value="Vorname"/>
                <answer>
                  <valueString value="Sabine"/>
                </answer>
              </item>
              <item>
                <linkId value="receiverCopy.practitionerRole.practitioner.phone"/>
                <text value="Telefon"/>
                <answer>
                  <valueString value="044 333 22 11"/>
                </answer>
              </item>
              <item>
                <linkId value="receiverCopy.practitionerRole.practitioner.email"/>
                <text value="E-Mail"/>
                <answer>
                  <valueString value="sabine.meier@praxisseeblick.ch"/>
                </answer>
              </item>
            </item>
            <item>
              <linkId value="receiverCopy.practitionerRole.organization"/>
              <text value="Gesundheitsorganisatiton"/>
              <item>
                <linkId value="receiverCopy.practitionerRole.organization.name"/>
                <text value="Name der Organisation"/>
                <answer>
                  <valueString value="Praxis Seeblick"/>
                </answer>
              </item>
              <item>
                <linkId value="receiverCopy.practitionerRole.organization.streetAddressLine"/>
                <text value="Strasse, Hausnummer, Postfach etc."/>
                <answer>
                  <valueString value="Seestrasse 133"/>
                </answer>
              </item>
              <item>
                <linkId value="receiverCopy.practitionerRole.organization.postalCode"/>
                <text value="PLZ"/>
                <answer>
                  <valueString value="8000"/>
                </answer>
              </item>
              <item>
                <linkId value="receiverCopy.practitionerRole.organization.city"/>
                <text value="Ort"/>
                <answer>
                  <valueString value="Zürich"/>
                </answer>
              </item>
              <item>
                <linkId value="receiverCopy.practitionerRole.organization.country"/>
                <text value="Land"/>
                <answer>
                  <valueString value="Schweiz"/>
                </answer>
              </item>
            </item>
          </item>
          <item>
            <linkId value="receiverCopy.patient"/>
            <text value="Patient selbst"/>
            <answer>
              <valueBoolean value="true"/>
            </answer>
          </item>
        </item>
        <item>
          <linkId value="antecedentEpisodeOfCare"/>
          <text value="Vorgängiger Aufenthalt in Spital / Heim"/>
          <item>
            <linkId value="antecedentEpisodeOfCare.start"/>
            <text value="Von"/>
            <answer>
              <valueDateTime value="2023-05-22"/>
            </answer>
          </item>
          <item>
            <linkId value="antecedentEpisodeOfCare.end"/>
            <text value="Bis"/>
            <answer>
              <valueDateTime value="2023-05-27"/>
            </answer>
          </item>
          <item>
            <linkId value="antecedentEpisodeOfCare.managingOrganization"/>
            <text value="Spital /Heim"/>
            <item>
              <linkId value="antecedentEpisodeOfCare.managingOrganization.name"/>
              <text value="Name der Organisation"/>
              <answer>
                <valueString value="Spital Hinterfultigen"/>
              </answer>
            </item>
          </item>
        </item>
        <item>
          <linkId value="appointment"/>
          
          <text value="Ort und Zeit der Durchführung der angeforderten Leistung"/>
        </item>
        <item>
          <linkId value="consent"/>
          <text value="Einverständniserklärung"/>
          <item>
            <linkId value="patient.consent.statement"/>
            <text value="Ist der Patient über die Anmeldung informiert und explizit einverstanden?"/>
            <answer>
              <valueCoding>
                <system value="http://fhir.ch/ig/ch-orf/CodeSystem/ch-orf-cs-consentstatus"/>
                <code value="Other"/>
                <display value="Other situation such as 'implicit agreement', 'agreed by legal guardian' etc."/>
              </valueCoding>
              <item>
                <linkId value="patient.consent.statement.note"/>
                <text value="Anmerkung"/>
                <answer>
                  <valueString value="Voraussichtlich einverstanden; Sohn wird die Situation beim nä. Besuch mit Pat. besprechen"/>
                </answer>
              </item>
            </answer>
          </item>
        </item>
        <item>
          <linkId value="note"/>
          <text value="Bemerkungen"/>
          <item>
            <linkId value="note.text"/>
            <text value="Kommentar"/>
            <answer>
              <valueString value="Patientin ist sehr ängstlich"/>
            </answer>
          </item>
        </item>
      </QuestionnaireResponse>
    </resource>
  </entry>
  <entry>
    <fullUrl value="urn:uuid:2f9f6d08-6fbc-4659-af0d-abdae83da63f"/>
    <resource>
      <ServiceRequest>
        <language value="de-CH"/>
        <extension url="http://fhir.ch/ig/ch-orf/StructureDefinition/ch-orf-requestedencounterdetails">
          <valueReference>
            <reference value="urn:uuid:f435f713-5fb9-42a8-b3cc-7033ba75e3d5"/>
          </valueReference>
        </extension>
        <identifier>
          <type>
            <coding>
              <system value="http://terminology.hl7.org/CodeSystem/v2-0203"/>
              <code value="PLAC"/>
            </coding>
          </type>
          <system value="urn:oid:2.999.1.3.4.5.6.7"/>
          <value value="123"/>
        </identifier>
        <identifier>
          <type>
            <coding>
              <system value="http://terminology.hl7.org/CodeSystem/v2-0203"/>
              <code value="FILL"/>
            </coding>
          </type>
          <system value="urn:oid:2.999.7.8.9.10.11"/>
          <value value="456"/>
        </identifier>
        <status value="active"/>
        <intent value="order"/>
        <priority value="routine"/>
        <subject>
          <reference value="urn:uuid:aaddb7b1-eb51-4426-8182-42f66fbf24d0"/>
        </subject>
        <requester>
          <reference value="urn:uuid:4388146d-9909-4613-b0c5-2ac3de31dfb8"/>
        </requester>
        <insurance>
          <reference value="urn:uuid:4d45ffb2-6335-4cf2-9d16-ad4387272345"/>
        </insurance>
        <note>
          <text value="Patientin ist sehr ängstlich"/>
        </note>
      </ServiceRequest>
    </resource>
  </entry>
  <entry>
    <fullUrl value="http://fhir.ch/ig/ch-orf/Questionnaire/order-referral-form" />
    <resource>
    <Questionnaire>
      <id value="order-referral-form" />
      <language value="de-CH"/>
        <extension url="http://hl7.org/fhir/uv/sdc/StructureDefinition/sdc-questionnaire-targetStructureMap">
          <valueCanonical value="http://fhir.ch/ig/ch-orf/StructureMap/OrfQrToBundle"/>
        </extension>
        <extension url="http://hl7.org/fhir/uv/sdc/StructureDefinition/sdc-questionnaire-launchContext">
          <extension url="name">
            <valueCoding>
              <system value="http://hl7.org/fhir/uv/sdc/CodeSystem/launchContext"/>
              <code value="patient"/>
            </valueCoding>
          </extension>
          <extension url="type">
            <valueCode value="Patient"/>
          </extension>
        </extension>
        <extension url="http://hl7.org/fhir/uv/sdc/StructureDefinition/sdc-questionnaire-launchContext">
          <extension url="name">
            <valueCoding>
              <system value="http://hl7.org/fhir/uv/sdc/CodeSystem/launchContext"/>
              <code value="user"/>
              <display value="User"/>
            </valueCoding>
          </extension>
          <extension url="type">
            <valueCode value="Practitioner"/>
          </extension>
          <extension url="description">
            <valueString value="The practitioner that is to be used to pre-populate the form"/>
          </extension>
        </extension>
        <extension url="http://hl7.org/fhir/uv/sdc/StructureDefinition/sdc-questionnaire-assembledFrom">
          <valueCanonical value="http://fhir.ch/ig/ch-orf/Questionnaire/ch-orf-module-order|3.0.1"/>
        </extension>
        <extension url="http://hl7.org/fhir/uv/sdc/StructureDefinition/sdc-questionnaire-assembledFrom">
          <valueCanonical value="http://fhir.ch/ig/ch-orf/Questionnaire/ch-orf-module-practitioner-nametel|3.0.1"/>
        </extension>
        <extension url="http://hl7.org/fhir/uv/sdc/StructureDefinition/sdc-questionnaire-assembledFrom">
          <valueCanonical value="http://fhir.ch/ig/ch-orf/Questionnaire/ch-orf-module-receiver|3.0.1"/>
        </extension>
        <extension url="http://hl7.org/fhir/uv/sdc/StructureDefinition/sdc-questionnaire-assembledFrom">
          <valueCanonical value="http://fhir.ch/ig/ch-orf/Questionnaire/ch-orf-module-address|3.0.1"/>
        </extension>
        <extension url="http://hl7.org/fhir/uv/sdc/StructureDefinition/sdc-questionnaire-assembledFrom">
          <valueCanonical value="http://fhir.ch/ig/ch-orf/Questionnaire/ch-orf-module-initiator|3.0.1"/>
        </extension>
        <extension url="http://hl7.org/fhir/uv/sdc/StructureDefinition/sdc-questionnaire-assembledFrom">
          <valueCanonical value="http://fhir.ch/ig/ch-orf/Questionnaire/ch-orf-module-patient|3.0.1"/>
        </extension>
        <extension url="http://hl7.org/fhir/uv/sdc/StructureDefinition/sdc-questionnaire-assembledFrom">
          <valueCanonical value="http://fhir.ch/ig/ch-orf/Questionnaire/ch-orf-module-familydoctor|3.0.1"/>
        </extension>
        <extension url="http://hl7.org/fhir/uv/sdc/StructureDefinition/sdc-questionnaire-assembledFrom">
          <valueCanonical value="http://fhir.ch/ig/ch-orf/Questionnaire/ch-orf-module-requestedencounter|3.0.1"/>
        </extension>
        <extension url="http://hl7.org/fhir/uv/sdc/StructureDefinition/sdc-questionnaire-assembledFrom">
          <valueCanonical value="http://fhir.ch/ig/ch-orf/Questionnaire/ch-orf-module-coverage|3.0.1"/>
        </extension>
        <extension url="http://hl7.org/fhir/uv/sdc/StructureDefinition/sdc-questionnaire-assembledFrom">
          <valueCanonical value="http://fhir.ch/ig/ch-orf/Questionnaire/ch-orf-module-sender|3.0.1"/>
        </extension>
        <extension url="http://hl7.org/fhir/uv/sdc/StructureDefinition/sdc-questionnaire-assembledFrom">
          <valueCanonical value="http://fhir.ch/ig/ch-orf/Questionnaire/ch-orf-module-receivercopy|3.0.1"/>
        </extension>
        <extension url="http://hl7.org/fhir/uv/sdc/StructureDefinition/sdc-questionnaire-assembledFrom">
          <valueCanonical value="http://fhir.ch/ig/ch-orf/Questionnaire/ch-orf-module-appointment|3.0.1"/>
        </extension>
        <extension url="http://hl7.org/fhir/uv/sdc/StructureDefinition/sdc-questionnaire-assembledFrom">
          <valueCanonical value="http://fhir.ch/ig/ch-orf/Questionnaire/ch-orf-module-consent|3.0.1"/>
        </extension>
        <url value="http://fhir.ch/ig/ch-orf/Questionnaire/order-referral-form"/>
        <version value="3.0.1"/>
        <name value="OrderReferralForm"/>
        <title value="Order Referral Form"/>
        <status value="active"/>
        <subjectType value="Patient"/>
        <date value="2022-07-07"/>
        <publisher value="HL7 Switzerland"/>
        <contact>
          <name value="HL7 Switzerland"/>
          <telecom>
            <system value="url"/>
            <value value="https://www.hl7.ch/"/>
          </telecom>
        </contact>
        <jurisdiction>
          <coding>
            <system value="urn:iso:std:iso:3166"/>
            <code value="CH"/>
          </coding>
        </jurisdiction>
        <copyright value="CC-BY-SA-4.0"/>
        <item>
          <linkId value="order"/>
          <text value="Auftrag"/>
          <type value="group"/>
          <required value="true"/>
          <item>
            <linkId value="order.authoredOn"/>
            
            <text value="Datum/Zeit der Auftragserteilung"/>
            <type value="dateTime"/>
          </item>
          <item>
            <linkId value="order.placerOrderIdentifier"/>
            
            <text value="Auftragsnummer des Auftraggebers"/>
            <type value="string"/>
          </item>
          <item>
            <extension url="http://hl7.org/fhir/StructureDefinition/questionnaire-hidden">
              <valueBoolean value="true"/>
            </extension>
            <linkId value="order.placerOrderIdentifierDomain"/>
            
            <text value="Identifier Domain der Auftragsnummer des Auftraggebers"/>
            <type value="string"/>
          </item>
          <item>
            <linkId value="order.fillerOrderIdentifier"/>
            
            <text value="Auftragsnummer des Auftragsempfängers"/>
            <type value="string"/>
          </item>
          <item>
            <extension url="http://hl7.org/fhir/StructureDefinition/questionnaire-hidden">
              <valueBoolean value="true"/>
            </extension>
            <linkId value="order.fillerOrderIdentifierDomain"/>
            
            <text value="Identifier Domain der Auftragsnummer des Auftragsempfängers"/>
            <type value="string"/>
          </item>
          <item>
            <extension url="http://hl7.org/fhir/StructureDefinition/questionnaire-hidden">
              <valueBoolean value="true"/>
            </extension>
            <linkId value="order.precedentDocumentIdentifier"/>
            
            <text value="Identifier des Vorgängerdokuments"/>
            <type value="string"/>
          </item>
          <item>
            <linkId value="order.notificationContactDocument"/>
            
            <text value="Dringender Benachrichtigungskontakt für dieses Dokument"/>
            <type value="group"/>
            <item>
              <extension url="http://hl7.org/fhir/StructureDefinition/variable">
                <valueExpression>
                  <name value="linkIdPrefix"/>
                  <language value="text/fhirpath"/>
                  <expression value="'order.notificationContactDocument.practitioner.'"/>
                </valueExpression>
              </extension>
              <linkId value="order.notificationContactDocument.practitioner"/>
              
              <text value="Zu benachrichtigende Person"/>
              <type value="group"/>
              <item>
                <linkId value="order.notificationContactDocument.practitioner.title"/>
                
                <text value="Titel"/>
                <type value="string"/>
              </item>
              <item>
                <linkId value="order.notificationContactDocument.practitioner.familyName"/>
                
                <text value="Name"/>
                <type value="string"/>
              </item>
              <item>
                <linkId value="order.notificationContactDocument.practitioner.givenName"/>
                
                <text value="Vorname"/>
                <type value="string"/>
              </item>
              <item>
                <linkId value="order.notificationContactDocument.practitioner.phone"/>
                
                <text value="Telefon"/>
                <type value="string"/>
              </item>
              <item>
                <linkId value="order.notificationContactDocument.practitioner.email"/>
                
                <text value="E-Mail"/>
                <type value="string"/>
              </item>
            </item>
          </item>
          <item>
            <linkId value="order.notificationContactDocumentResponse"/>
            
            <text value="Dringender Benachrichtigungskontakt für die Antwort auf dieses Dokument"/>
            <type value="group"/>
            <item>
              <extension url="http://hl7.org/fhir/StructureDefinition/variable">
                <valueExpression>
                  <name value="linkIdPrefix"/>
                  <language value="text/fhirpath"/>
                  <expression value="'order.notificationContactDocumentResponse.practitioner.'"/>
                </valueExpression>
              </extension>
              <linkId value="order.notificationContactDocumentResponse.practitioner"/>
              
              <text value="Zu benachrichtigende Person"/>
              <type value="group"/>
              <item>
                <linkId value="order.notificationContactDocumentResponse.practitioner.title"/>
                
                <text value="Titel"/>
                <type value="string"/>
              </item>
              <item>
                <linkId value="order.notificationContactDocumentResponse.practitioner.familyName"/>
                
                <text value="Name"/>
                <type value="string"/>
              </item>
              <item>
                <linkId value="order.notificationContactDocumentResponse.practitioner.givenName"/>
                
                <text value="Vorname"/>
                <type value="string"/>
              </item>
              <item>
                <linkId value="order.notificationContactDocumentResponse.practitioner.phone"/>
                
                <text value="Telefon"/>
                <type value="string"/>
              </item>
              <item>
                <linkId value="order.notificationContactDocumentResponse.practitioner.email"/>
                
                <text value="E-Mail"/>
                <type value="string"/>
              </item>
            </item>
          </item>
          <item>
            <linkId value="order.priority"/>
            
            <text value="Auftragspriorität"/>
            <type value="choice"/>
            <answerOption>
              <valueCoding>
                <system value="http://hl7.org/fhir/request-priority"/>
                <code value="routine"/>
                <display value="Die Anfrage hat normale Priorität."/>
              </valueCoding>
              <initialSelected value="true"/>
            </answerOption>
            <answerOption>
              <valueCoding>
                <system value="http://hl7.org/fhir/request-priority"/>
                <code value="urgent"/>
                <display value="Die Anfrage sollte dringend bearbeitet werden - höhere Priorität als normal."/>
              </valueCoding>
            </answerOption>
            <answerOption>
              <valueCoding>
                <system value="http://hl7.org/fhir/request-priority"/>
                <code value="asap"/>
                <display value="Die Anfrage sollte so schnell wie möglich bearbeitet werden - höhere Priorität als dringend."/>
              </valueCoding>
            </answerOption>
            <answerOption>
              <valueCoding>
                <system value="http://hl7.org/fhir/request-priority"/>
                <code value="stat"/>
                <display value="Die Anfrage sollte sofort bearbeitet werden - höchstmögliche Priorität. Z.B. bei einem Notfall."/>
              </valueCoding>
            </answerOption>
          </item>
        </item>
        <item>
          <linkId value="receiver"/>
          
          <text value="Empfänger"/>
          <type value="group"/>
          <item>
            <linkId value="receiver.practitioner"/>
            
            <text value="Empfangende Person"/>
            <type value="group"/>
            <item>
              <linkId value="receiver.practitioner.title"/>
              
              <text value="Titel"/>
              <type value="string"/>
            </item>
            <item>
              <linkId value="receiver.practitioner.familyName"/>
              
              <text value="Name"/>
              <type value="string"/>
            </item>
            <item>
              <linkId value="receiver.practitioner.givenName"/>
              
              <text value="Vorname"/>
              <type value="string"/>
            </item>
            <item>
              <linkId value="receiver.practitioner.gln"/>
              
              <text value="GLN"/>
              <type value="string"/>
            </item>
            <item>
              <linkId value="receiver.practitioner.zsr"/>
              
              <text value="ZSR (fr/it: RCC)"/>
              <type value="string"/>
            </item>
            <item>
              <linkId value="receiver.practitioner.phone"/>
              
              <text value="Telefon"/>
              <type value="string"/>
            </item>
            <item>
              <linkId value="receiver.practitioner.email"/>
              
              <text value="E-Mail"/>
              <type value="string"/>
            </item>
          </item>
          <item>
            <extension url="http://hl7.org/fhir/StructureDefinition/variable">
              <valueExpression>
                <name value="linkIdPrefix"/>
                <language value="text/fhirpath"/>
                <expression value="'receiver.organization.'"/>
              </valueExpression>
            </extension>
            <linkId value="receiver.organization"/>
            
            <text value="Empfangende Organisation"/>
            <type value="group"/>
            <item>
              <linkId value="receiver.organization.name"/>
              
              <text value="Name der Organisation"/>
              <type value="string"/>
            </item>
            <item>
              <linkId value="receiver.organization.gln"/>
              
              <text value="GLN"/>
              <type value="string"/>
            </item>
            <item>
              <extension url="http://hl7.org/fhir/uv/sdc/StructureDefinition/sdc-questionnaire-initialExpression">
                <valueExpression>
                  <language value="text/fhirpath"/>
                  <expression value="%address.line"/>
                </valueExpression>
              </extension>
              <linkId value="receiver.organization.streetAddressLine"/>
              <text value="Strasse, Hausnummer, Postfach etc."/>
              <type value="string"/>
              <repeats value="true"/>
            </item>
            <item>
              <extension url="http://hl7.org/fhir/uv/sdc/StructureDefinition/sdc-questionnaire-initialExpression">
                <valueExpression>
                  <language value="text/fhirpath"/>
                  <expression value="%address.postalCode"/>
                </valueExpression>
              </extension>
              <linkId value="receiver.organization.postalCode"/>
              <text value="PLZ"/>
              <type value="string"/>
            </item>
            <item>
              <extension url="http://hl7.org/fhir/uv/sdc/StructureDefinition/sdc-questionnaire-initialExpression">
                <valueExpression>
                  <language value="text/fhirpath"/>
                  <expression value="%address.city"/>
                </valueExpression>
              </extension>
              <linkId value="receiver.organization.city"/>
              <text value="Ort"/>
              <type value="string"/>
            </item>
            <item>
              <extension url="http://hl7.org/fhir/uv/sdc/StructureDefinition/sdc-questionnaire-initialExpression">
                <valueExpression>
                  <language value="text/fhirpath"/>
                  <expression value="%address.country"/>
                </valueExpression>
              </extension>
              <linkId value="receiver.organization.country"/>
              <text value="Land"/>
              <type value="string"/>
            </item>
          </item>
        </item>
        <item>
          <linkId value="initiator"/>
          
          <text value="Initiant dieser Anmeldung"/>
          <type value="group"/>
          <item>
            <linkId value="initiator.legalrelation"/>
            
            <text value="Juristische Beziehung zum Patienten"/>
            <type value="choice"/>
            <answerOption>
              <valueCoding>
                <system value="http://snomed.info/sct"/>
                <code value="373068000"/>
                <display value="Nicht definiert"/>
              </valueCoding>
            </answerOption>
            <answerOption>
              <valueCoding>
                <system value="http://snomed.info/sct"/>
                <code value="58626002"/>
                <display value="Gesetzlicher Vertreter"/>
              </valueCoding>
            </answerOption>
          </item>
          <item>
            <linkId value="initiator.personalrelation"/>
            
            <text value="Persönliche Beziehung zum Patienten?"/>
            <type value="choice"/>
            <answerOption>
              <valueCoding>
                <system value="http://snomed.info/sct"/>
                <code value="66089001"/>
                <display value="Tochter"/>
              </valueCoding>
            </answerOption>
            <answerOption>
              <valueCoding>
                <system value="http://snomed.info/sct"/>
                <code value="65616008"/>
                <display value="Sohn"/>
              </valueCoding>
            </answerOption>
            <answerOption>
              <valueCoding>
                <system value="http://snomed.info/sct"/>
                <code value="127849001"/>
                <display value="Ehemann"/>
              </valueCoding>
            </answerOption>
            <answerOption>
              <valueCoding>
                <system value="http://snomed.info/sct"/>
                <code value="127850001"/>
                <display value="Ehefrau"/>
              </valueCoding>
            </answerOption>
            <answerOption>
              <valueCoding>
                <system value="http://snomed.info/sct"/>
                <code value="394921008"/>
                <display value="Partner (eingetragene  Partnerschaft)"/>
              </valueCoding>
            </answerOption>
            <answerOption>
              <valueCoding>
                <system value="http://snomed.info/sct"/>
                <code value="70924004"/>
                <display value="Bruder"/>
              </valueCoding>
            </answerOption>
            <answerOption>
              <valueCoding>
                <system value="http://snomed.info/sct"/>
                <code value="27733009"/>
                <display value="Schwester"/>
              </valueCoding>
            </answerOption>
            <answerOption>
              <valueCoding>
                <system value="http://snomed.info/sct"/>
                <code value="72705000"/>
                <display value="Mutter"/>
              </valueCoding>
            </answerOption>
            <answerOption>
              <valueCoding>
                <system value="http://snomed.info/sct"/>
                <code value="66839005"/>
                <display value="Vater"/>
              </valueCoding>
            </answerOption>
            <answerOption>
              <valueCoding>
                <system value="http://snomed.info/sct"/>
                <code value="48385004"/>
                <display value="Bekannt"/>
              </valueCoding>
            </answerOption>
          </item>
          <item>
            <linkId value="initiator.practitionerRole"/>
            
            <text value="Gesundheitsfachperson oder -organisation"/>
            <type value="group"/>
            <item>
              <extension url="http://hl7.org/fhir/StructureDefinition/variable">
                <valueExpression>
                  <name value="linkIdPrefix"/>
                  <language value="text/fhirpath"/>
                  <expression value="'initiator.practitionerRole.practitioner.'"/>
                </valueExpression>
              </extension>
              <linkId value="initiator.practitionerRole.practitioner"/>
              
              <text value="Gesundheitsfachperson"/>
              <type value="group"/>
              <item>
                <linkId value="initiator.practitionerRole.practitioner.title"/>
                
                <text value="Titel"/>
                <type value="string"/>
              </item>
              <item>
                <linkId value="initiator.practitionerRole.practitioner.familyName"/>
                
                <text value="Name"/>
                <type value="string"/>
              </item>
              <item>
                <linkId value="initiator.practitionerRole.practitioner.givenName"/>
                
                <text value="Vorname"/>
                <type value="string"/>
              </item>
              <item>
                <linkId value="initiator.practitionerRole.practitioner.phone"/>
                
                <text value="Telefon"/>
                <type value="string"/>
              </item>
              <item>
                <linkId value="initiator.practitionerRole.practitioner.email"/>
                
                <text value="E-Mail"/>
                <type value="string"/>
              </item>
            </item>
            <item>
              <extension url="http://hl7.org/fhir/StructureDefinition/variable">
                <valueExpression>
                  <name value="linkIdPrefix"/>
                  <language value="text/fhirpath"/>
                  <expression value="'initiator.practitionerRole.organization.'"/>
                </valueExpression>
              </extension>
              <linkId value="initiator.practitionerRole.organization"/>
              
              <text value="Gesundheitsorganisatiton"/>
              <type value="group"/>
              <item>
                <linkId value="initiator.practitionerRole.organization.name"/>
                
                <text value="Name der Organisation"/>
                <type value="string"/>
              </item>
              <item>
                <extension url="http://hl7.org/fhir/uv/sdc/StructureDefinition/sdc-questionnaire-initialExpression">
                  <valueExpression>
                    <language value="text/fhirpath"/>
                    <expression value="%address.line"/>
                  </valueExpression>
                </extension>
                <linkId value="initiator.practitionerRole.organization.streetAddressLine"/>
                <text value="Strasse, Hausnummer, Postfach etc."/>
                <type value="string"/>
                <repeats value="true"/>
              </item>
              <item>
                <extension url="http://hl7.org/fhir/uv/sdc/StructureDefinition/sdc-questionnaire-initialExpression">
                  <valueExpression>
                    <language value="text/fhirpath"/>
                    <expression value="%address.postalCode"/>
                  </valueExpression>
                </extension>
                <linkId value="initiator.practitionerRole.organization.postalCode"/>
                <text value="PLZ"/>
                <type value="string"/>
              </item>
              <item>
                <extension url="http://hl7.org/fhir/uv/sdc/StructureDefinition/sdc-questionnaire-initialExpression">
                  <valueExpression>
                    <language value="text/fhirpath"/>
                    <expression value="%address.city"/>
                  </valueExpression>
                </extension>
                <linkId value="initiator.practitionerRole.organization.city"/>
                <text value="Ort"/>
                <type value="string"/>
              </item>
              <item>
                <extension url="http://hl7.org/fhir/uv/sdc/StructureDefinition/sdc-questionnaire-initialExpression">
                  <valueExpression>
                    <language value="text/fhirpath"/>
                    <expression value="%address.country"/>
                  </valueExpression>
                </extension>
                <linkId value="initiator.practitionerRole.organization.country"/>
                <text value="Land"/>
                <type value="string"/>
              </item>
            </item>
          </item>
          <item>
            <linkId value="initiator.relatedPerson"/>
            
            <text value="Andere Person"/>
            <type value="group"/>
            <item>
              <extension url="http://hl7.org/fhir/StructureDefinition/variable">
                <valueExpression>
                  <name value="linkIdPrefix"/>
                  <language value="text/fhirpath"/>
                  <expression value="'initiator.relatedPerson.'"/>
                </valueExpression>
              </extension>
              <linkId value="initiator.relatedPerson.familyName"/>
              
              <text value="Name"/>
              <type value="string"/>
            </item>
            <item>
              <linkId value="initiator.relatedPerson.givenName"/>
              
              <text value="Vorname"/>
              <type value="string"/>
            </item>
            <item>
              <linkId value="initiator.relatedPerson.phone"/>
              
              <text value="Telefon"/>
              <type value="string"/>
              <repeats value="true"/>
            </item>
            <item>
              <linkId value="initiator.relatedPerson.email"/>
              
              <text value="E-Mail"/>
              <type value="string"/>
            </item>
            <item>
              <extension url="http://hl7.org/fhir/uv/sdc/StructureDefinition/sdc-questionnaire-initialExpression">
                <valueExpression>
                  <language value="text/fhirpath"/>
                  <expression value="%address.line"/>
                </valueExpression>
              </extension>
              <linkId value="initiator.relatedPerson.streetAddressLine"/>
              <text value="Strasse, Hausnummer, Postfach etc."/>
              <type value="string"/>
              <repeats value="true"/>
            </item>
            <item>
              <extension url="http://hl7.org/fhir/uv/sdc/StructureDefinition/sdc-questionnaire-initialExpression">
                <valueExpression>
                  <language value="text/fhirpath"/>
                  <expression value="%address.postalCode"/>
                </valueExpression>
              </extension>
              <linkId value="initiator.relatedPerson.postalCode"/>
              <text value="PLZ"/>
              <type value="string"/>
            </item>
            <item>
              <extension url="http://hl7.org/fhir/uv/sdc/StructureDefinition/sdc-questionnaire-initialExpression">
                <valueExpression>
                  <language value="text/fhirpath"/>
                  <expression value="%address.city"/>
                </valueExpression>
              </extension>
              <linkId value="initiator.relatedPerson.city"/>
              <text value="Ort"/>
              <type value="string"/>
            </item>
            <item>
              <extension url="http://hl7.org/fhir/uv/sdc/StructureDefinition/sdc-questionnaire-initialExpression">
                <valueExpression>
                  <language value="text/fhirpath"/>
                  <expression value="%address.country"/>
                </valueExpression>
              </extension>
              <linkId value="initiator.relatedPerson.country"/>
              <text value="Land"/>
              <type value="string"/>
            </item>
          </item>
        </item>
        <item>
          <extension url="http://hl7.org/fhir/StructureDefinition/variable">
            <valueExpression>
              <name value="linkIdPrefix"/>
              <language value="text/fhirpath"/>
              <expression value="'patient.'"/>
            </valueExpression>
          </extension>
          <extension url="http://hl7.org/fhir/StructureDefinition/variable">
            <valueExpression>
              <name value="address"/>
              <language value="text/fhirpath"/>
              <expression value="%patient.address"/>
            </valueExpression>
          </extension>
          <linkId value="patient"/>
          
          <text value="Patient"/>
          <type value="group"/>
          <required value="true"/>
          <item>
            <extension url="http://hl7.org/fhir/uv/sdc/StructureDefinition/sdc-questionnaire-initialExpression">
              <valueExpression>
                <language value="text/fhirpath"/>
                <expression value="%patient.name.where(use='official').family"/>
              </valueExpression>
            </extension>
            <linkId value="patient.familyName"/>
            
            <text value="Name"/>
            <type value="string"/>
          </item>
          <item>
            <extension url="http://hl7.org/fhir/uv/sdc/StructureDefinition/sdc-questionnaire-initialExpression">
              <valueExpression>
                <language value="text/fhirpath"/>
                <expression value="%patient.name.where(use='maiden').family"/>
              </valueExpression>
            </extension>
            <linkId value="patient.maidenName"/>
            
            <text value="Ledigname"/>
            <type value="string"/>
          </item>
          <item>
            <extension url="http://hl7.org/fhir/uv/sdc/StructureDefinition/sdc-questionnaire-initialExpression">
              <valueExpression>
                <language value="text/fhirpath"/>
                <expression value="%patient.name.where(use='official').given"/>
              </valueExpression>
            </extension>
            <linkId value="patient.givenName"/>
            
            <text value="Vorname"/>
            <type value="string"/>
          </item>
          <item>
            <extension url="http://hl7.org/fhir/uv/sdc/StructureDefinition/sdc-questionnaire-initialExpression">
              <valueExpression>
                <language value="text/fhirpath"/>
                <expression value="%patient.identifier.where(type.coding.where(system='http://terminology.hl7.org/CodeSystem/v2-0203' and code='MR').exists()).value"/>
              </valueExpression>
            </extension>
            <linkId value="patient.localPid"/>
            
            <text value="Lokale Patienten-ID"/>
            <type value="string"/>
          </item>
          <item>
            <extension url="http://hl7.org/fhir/StructureDefinition/questionnaire-hidden">
              <valueBoolean value="true"/>
            </extension>
            <linkId value="patient.localPidDomain"/>
            
            <text value="Lokale Patienten-ID Domain"/>
            <type value="string"/>
          </item>
          <item>
            <extension url="http://hl7.org/fhir/uv/sdc/StructureDefinition/sdc-questionnaire-initialExpression">
              <valueExpression>
                <language value="text/fhirpath"/>
                <expression value="%patient.birthDate"/>
              </valueExpression>
            </extension>
            <linkId value="patient.birthDate"/>
            
            <text value="Geburtsdatum"/>
            <type value="date"/>
          </item>
          <item>
            <extension url="http://hl7.org/fhir/uv/sdc/StructureDefinition/sdc-questionnaire-initialExpression">
              <valueExpression>
                <language value="text/fhirpath"/>
                <expression value="%questionnaire.repeat(item).where(linkId='patient.gender').answerOption.valueCoding.where(code=%patient.gender)"/>
              </valueExpression>
            </extension>
            <linkId value="patient.gender"/>
            
            <text value="Geschlecht"/>
            <type value="choice"/>
            <answerOption>
              <valueCoding>
                <system value="http://hl7.org/fhir/administrative-gender"/>
                <code value="male"/>
                <display value="Männlich"/>
              </valueCoding>
              <initialSelected value="true"/>
            </answerOption>
            <answerOption>
              <valueCoding>
                <system value="http://hl7.org/fhir/administrative-gender"/>
                <code value="female"/>
                <display value="Weiblich"/>
              </valueCoding>
            </answerOption>
            <answerOption>
              <valueCoding>
                <system value="http://hl7.org/fhir/administrative-gender"/>
                <code value="other"/>
                <display value="Anderes"/>
              </valueCoding>
            </answerOption>
          </item>
          <item>
            <extension url="http://hl7.org/fhir/uv/sdc/StructureDefinition/sdc-questionnaire-initialExpression">
              <valueExpression>
                <language value="text/fhirpath"/>
                <expression value="%patient.maritalStatus"/>
              </valueExpression>
            </extension>
            <linkId value="patient.maritalStatus"/>
            
            <text value="Zivilstand"/>
            <type value="choice"/>
            <answerOption>
              <valueCoding>
                <system value="http://fhir.ch/ig/ch-core/CodeSystem/ech-11-maritalstatus"/>
                <code value="1"/>
                <display value="ledig"/>
              </valueCoding>
            </answerOption>
            <answerOption>
              <valueCoding>
                <system value="http://fhir.ch/ig/ch-core/CodeSystem/ech-11-maritalstatus"/>
                <code value="2"/>
                <display value="verheiratet"/>
              </valueCoding>
            </answerOption>
            <answerOption>
              <valueCoding>
                <system value="http://fhir.ch/ig/ch-core/CodeSystem/ech-11-maritalstatus"/>
                <code value="3"/>
                <display value="verwitwet"/>
              </valueCoding>
            </answerOption>
            <answerOption>
              <valueCoding>
                <system value="http://fhir.ch/ig/ch-core/CodeSystem/ech-11-maritalstatus"/>
                <code value="4"/>
                <display value="geschieden"/>
              </valueCoding>
            </answerOption>
            <answerOption>
              <valueCoding>
                <system value="http://fhir.ch/ig/ch-core/CodeSystem/ech-11-maritalstatus"/>
                <code value="5"/>
                <display value="unverheiratet"/>
              </valueCoding>
            </answerOption>
            <answerOption>
              <valueCoding>
                <system value="http://fhir.ch/ig/ch-core/CodeSystem/ech-11-maritalstatus"/>
                <code value="6"/>
                <display value="in eingetragener Partnerschaft"/>
              </valueCoding>
            </answerOption>
            <answerOption>
              <valueCoding>
                <system value="http://fhir.ch/ig/ch-core/CodeSystem/ech-11-maritalstatus"/>
                <code value="7"/>
                <display value="aufgelöste Partnerschaft"/>
              </valueCoding>
            </answerOption>
            <answerOption>
              <valueCoding>
                <system value="http://fhir.ch/ig/ch-core/CodeSystem/ech-11-maritalstatus"/>
                <code value="9"/>
                <display value="unbekannt"/>
              </valueCoding>
            </answerOption>
          </item>
          <item>
            <extension url="http://hl7.org/fhir/uv/sdc/StructureDefinition/sdc-questionnaire-initialExpression">
              <valueExpression>
                <language value="text/fhirpath"/>
                <expression value="%patient.telecom.where(system='phone').value"/>
              </valueExpression>
            </extension>
            <linkId value="patient.phone"/>
            
            <text value="Telefon"/>
            <type value="string"/>
            <repeats value="true"/>
          </item>
          <item>
            <extension url="http://hl7.org/fhir/uv/sdc/StructureDefinition/sdc-questionnaire-initialExpression">
              <valueExpression>
                <language value="text/fhirpath"/>
                <expression value="%patient.telecom.where(system='email').value"/>
              </valueExpression>
            </extension>
            <linkId value="patient.email"/>
            
            <text value="E-Mail"/>
            <type value="string"/>
          </item>
          <item>
            <extension url="http://hl7.org/fhir/uv/sdc/StructureDefinition/sdc-questionnaire-initialExpression">
              <valueExpression>
                <language value="text/fhirpath"/>
                <expression value="%address.line"/>
              </valueExpression>
            </extension>
            <linkId value="patient.streetAddressLine"/>
            <text value="Strasse, Hausnummer, Postfach etc."/>
            <type value="string"/>
            <repeats value="true"/>
          </item>
          <item>
            <extension url="http://hl7.org/fhir/uv/sdc/StructureDefinition/sdc-questionnaire-initialExpression">
              <valueExpression>
                <language value="text/fhirpath"/>
                <expression value="%address.postalCode"/>
              </valueExpression>
            </extension>
            <linkId value="patient.postalCode"/>
            <text value="PLZ"/>
            <type value="string"/>
          </item>
          <item>
            <extension url="http://hl7.org/fhir/uv/sdc/StructureDefinition/sdc-questionnaire-initialExpression">
              <valueExpression>
                <language value="text/fhirpath"/>
                <expression value="%address.city"/>
              </valueExpression>
            </extension>
            <linkId value="patient.city"/>
            <text value="Ort"/>
            <type value="string"/>
          </item>
          <item>
            <extension url="http://hl7.org/fhir/uv/sdc/StructureDefinition/sdc-questionnaire-initialExpression">
              <valueExpression>
                <language value="text/fhirpath"/>
                <expression value="%address.country"/>
              </valueExpression>
            </extension>
            <linkId value="patient.country"/>
            <text value="Land"/>
            <type value="string"/>
          </item>
          <item>
            <extension url="http://hl7.org/fhir/uv/sdc/StructureDefinition/sdc-questionnaire-initialExpression">
              <valueExpression>
                <language value="text/fhirpath"/>
                <expression value="%patient.communication.where(preferred=true).language.coding"/>
              </valueExpression>
            </extension>
            <linkId value="patient.languageOfCorrespondence"/>
            
            <text value="Korrespondenzsprache"/>
            <type value="choice"/>
            <answerValueSet value="http://fhir.ch/ig/ch-term/ValueSet/DocumentEntry.languageCode"/>
          </item>
          <item>
            <extension url="http://hl7.org/fhir/StructureDefinition/variable">
              <valueExpression>
                <name value="contact"/>
                <language value="text/fhirpath"/>
                <expression value="%patient.contact"/>
              </valueExpression>
            </extension>
            <linkId value="patient.contactperson"/>
            
            <text value="Kontaktperson"/>
            <type value="group"/>
            <repeats value="true"/>
            <item>
              <extension url="http://hl7.org/fhir/uv/sdc/StructureDefinition/sdc-questionnaire-initialExpression">
                <valueExpression>
                  <language value="text/fhirpath"/>
                  <expression value="%contact.relationship.text"/>
                </valueExpression>
              </extension>
              <linkId value="patient.contactperson.relationship"/>
              
              <text value="Beziehung"/>
              <type value="string"/>
            </item>
            <item>
              <extension url="http://hl7.org/fhir/uv/sdc/StructureDefinition/sdc-questionnaire-initialExpression">
                <valueExpression>
                  <language value="text/fhirpath"/>
                  <expression value="%contact.name.family"/>
                </valueExpression>
              </extension>
              <linkId value="patient.contactperson.familyName"/>
              
              <text value="Name"/>
              <type value="string"/>
            </item>
            <item>
              <extension url="http://hl7.org/fhir/uv/sdc/StructureDefinition/sdc-questionnaire-initialExpression">
                <valueExpression>
                  <language value="text/fhirpath"/>
                  <expression value="%contact.name.given"/>
                </valueExpression>
              </extension>
              <linkId value="patient.contactperson.givenName"/>
              
              <text value="Vorname"/>
              <type value="string"/>
            </item>
            <item>
              <extension url="http://hl7.org/fhir/uv/sdc/StructureDefinition/sdc-questionnaire-initialExpression">
                <valueExpression>
                  <language value="text/fhirpath"/>
                  <expression value="%contact.telecom.where(system='phone').value"/>
                </valueExpression>
              </extension>
              <linkId value="patient.contactperson.phone"/>
              
              <text value="Telefon"/>
              <type value="string"/>
              <repeats value="true"/>
            </item>
            <item>
              <extension url="http://hl7.org/fhir/uv/sdc/StructureDefinition/sdc-questionnaire-initialExpression">
                <valueExpression>
                  <language value="text/fhirpath"/>
                  <expression value="%contact.telecom.where(system='email').value"/>
                </valueExpression>
              </extension>
              <linkId value="patient.contactperson.email"/>
              
              <text value="E-Mail"/>
              <type value="string"/>
            </item>
          </item>
          <item>
            <linkId value="familydoctor"/>
            
            <text value="Hausarzt"/>
            <type value="group"/>
            <item>
              <linkId value="familydoctor.practitioner"/>
              
              <text value="Hausarzt Person"/>
              <type value="group"/>
              <item>
                <linkId value="familydoctor.practitioner.title"/>
                
                <text value="Titel"/>
                <type value="string"/>
              </item>
              <item>
                <linkId value="familydoctor.practitioner.familyName"/>
                
                <text value="Name"/>
                <type value="string"/>
              </item>
              <item>
                <linkId value="familydoctor.practitioner.givenName"/>
                
                <text value="Vorname"/>
                <type value="string"/>
              </item>
              <item>
                <linkId value="familydoctor.practitioner.gln"/>
                
                <text value="GLN"/>
                <type value="string"/>
              </item>
              <item>
                <linkId value="familydoctor.practitioner.zsr"/>
                
                <text value="ZSR (fr/it: RCC)"/>
                <type value="string"/>
              </item>
              <item>
                <linkId value="familydoctor.practitioner.phone"/>
                
                <text value="Telefon"/>
                <type value="string"/>
              </item>
              <item>
                <linkId value="familydoctor.practitioner.email"/>
                
                <text value="E-Mail"/>
                <type value="string"/>
              </item>
            </item>
            <item>
              <extension url="http://hl7.org/fhir/StructureDefinition/variable">
                <valueExpression>
                  <name value="linkIdPrefix"/>
                  <language value="text/fhirpath"/>
                  <expression value="'familydoctor.organization.'"/>
                </valueExpression>
              </extension>
              <linkId value="familydoctor.organization"/>
              
              <text value="Hausarzt Organisation"/>
              <type value="group"/>
              <item>
                <linkId value="familydoctor.organization.name"/>
                
                <text value="Name der Organisation"/>
                <type value="string"/>
              </item>
              <item>
                <linkId value="familydoctor.organization.gln"/>
                
                <text value="GLN"/>
                <type value="string"/>
              </item>
              <item>
                <extension url="http://hl7.org/fhir/uv/sdc/StructureDefinition/sdc-questionnaire-initialExpression">
                  <valueExpression>
                    <language value="text/fhirpath"/>
                    <expression value="%address.line"/>
                  </valueExpression>
                </extension>
                <linkId value="familydoctor.organization.streetAddressLine"/>
                <text value="Strasse, Hausnummer, Postfach etc."/>
                <type value="string"/>
                <repeats value="true"/>
              </item>
              <item>
                <extension url="http://hl7.org/fhir/uv/sdc/StructureDefinition/sdc-questionnaire-initialExpression">
                  <valueExpression>
                    <language value="text/fhirpath"/>
                    <expression value="%address.postalCode"/>
                  </valueExpression>
                </extension>
                <linkId value="familydoctor.organization.postalCode"/>
                <text value="PLZ"/>
                <type value="string"/>
              </item>
              <item>
                <extension url="http://hl7.org/fhir/uv/sdc/StructureDefinition/sdc-questionnaire-initialExpression">
                  <valueExpression>
                    <language value="text/fhirpath"/>
                    <expression value="%address.city"/>
                  </valueExpression>
                </extension>
                <linkId value="familydoctor.organization.city"/>
                <text value="Ort"/>
                <type value="string"/>
              </item>
              <item>
                <extension url="http://hl7.org/fhir/uv/sdc/StructureDefinition/sdc-questionnaire-initialExpression">
                  <valueExpression>
                    <language value="text/fhirpath"/>
                    <expression value="%address.country"/>
                  </valueExpression>
                </extension>
                <linkId value="familydoctor.organization.country"/>
                <text value="Land"/>
                <type value="string"/>
              </item>
            </item>
          </item>
        </item>
        <item>
          <linkId value="requestedEncounter"/>
          
          <text value="Patientenaufnahme"/>
          <type value="group"/>
          <item>
            <linkId value="requestedEncounter.class"/>
            
            <text value="Voraussichtlich: Ambulant / Stationär / Notfall"/>
            <type value="choice"/>
            <answerOption>
              <valueCoding>
                <system value="http://terminology.hl7.org/CodeSystem/v3-ActCode"/>
                <code value="AMB"/>
                <display value="Ambulant"/>
              </valueCoding>
            </answerOption>
            <answerOption>
              <valueCoding>
                <system value="http://terminology.hl7.org/CodeSystem/v3-ActCode"/>
                <code value="IMP"/>
                <display value="Stationär"/>
              </valueCoding>
            </answerOption>
            <answerOption>
              <valueCoding>
                <system value="http://terminology.hl7.org/CodeSystem/v3-ActCode"/>
                <code value="EMER"/>
                <display value="Notfall"/>
              </valueCoding>
            </answerOption>
          </item>
          <item>
            <linkId value="requestedEncounter.desiredAccommodation"/>
            
            <text value="Zimmerkategorie"/>
            <type value="choice"/>
            <answerOption>
              <valueCoding>
                <system value="http://fhir.ch/ig/ch-core/CodeSystem/bfs-medstats-21-encountertype"/>
                <code value="1"/>
                <display value="allgemein"/>
              </valueCoding>
            </answerOption>
            <answerOption>
              <valueCoding>
                <system value="http://fhir.ch/ig/ch-core/CodeSystem/bfs-medstats-21-encountertype"/>
                <code value="2"/>
                <display value="halbprivat"/>
              </valueCoding>
            </answerOption>
            <answerOption>
              <valueCoding>
                <system value="http://fhir.ch/ig/ch-core/CodeSystem/bfs-medstats-21-encountertype"/>
                <code value="3"/>
                <display value="privat"/>
              </valueCoding>
            </answerOption>
          </item>
        </item>
        <item>
          <linkId value="coverage"/>
          
          <text value="Kostenträger"/>
          <type value="group"/>
          <item>
            <linkId value="coverage.beneficiary"/>
            
            <text value="Begünstigter (Patient)"/>
            <type value="group"/>
            <item>
              <linkId value="coverage.beneficiary.ahvn13"/>
              
              <text value="AHV-Nr. des Patienten (fr/it: AVS)"/>
              <type value="string"/>
            </item>
          </item>
          <item>
            <linkId value="coverage.kvg"/>
            
            <text value="Krankenkasse nach KVG (fr/it: LAMal)"/>
            <type value="group"/>
            <item>
              <linkId value="coverage.kvg.name"/>
              
              <text value="Name der Versicherung"/>
              <type value="string"/>
            </item>
            <item>
              <linkId value="coverage.kvg.insuranceCardNumber"/>
              
              <text value="Kennnummer der Versichertenkarte"/>
              <type value="string"/>
            </item>
          </item>
          <item>
            <linkId value="coverage.uvg"/>
            
            <text value="Unfallversicherung nach UVG (fr: LAA, it: LAINF)"/>
            <type value="group"/>
            <item>
              <linkId value="coverage.uvg.name"/>
              
              <text value="Name der Versicherung"/>
              <type value="string"/>
            </item>
            <item>
              <linkId value="coverage.uvg.claimNumber"/>
              
              <text value="Schadennummer"/>
              <type value="string"/>
            </item>
          </item>
          <item>
            <linkId value="coverage.vvg"/>
            
            <text value="Zusatzversicherung nach VVG (fr/it: LCA)"/>
            <type value="group"/>
            <item>
              <linkId value="coverage.vvg.name"/>
              
              <text value="Name der Versicherung"/>
              <type value="string"/>
            </item>
            <item>
              <linkId value="coverage.vvg.insuranceCardNumber"/>
              
              <text value="Kennnummer der Versichertenkarte"/>
              <type value="string"/>
            </item>
          </item>
          <item>
            <linkId value="coverage.iv"/>
            
            <text value="Invalidenversicherung IV (fr/it: AI)"/>
            <type value="group"/>
            <item>
              <linkId value="coverage.iv.verfuegungsnummer"/>
              
              <text value="IV-Verfügungsnummer"/>
              <type value="string"/>
            </item>
          </item>
          <item>
            <linkId value="coverage.mv"/>
            
            <text value="Militärversicherung MV (fr/it: AM)"/>
            <type value="group"/>
            <item>
              <linkId value="coverage.mv.versichertennummer"/>
              
              <text value="MV-Versichertennummer"/>
              <type value="string"/>
            </item>
          </item>
          <item>
            <linkId value="coverage.self"/>
            
            <text value="Selbstzahler"/>
            <type value="group"/>
            <item>
              <linkId value="coverage.self.patient"/>
              
              <text value="Patient selbst"/>
              <type value="boolean"/>
            </item>
            <item>
              <linkId value="coverage.self.patientRelatedPerson"/>
              
              <text value="Andere Person"/>
              <type value="boolean"/>
              <enableWhen>
                <question value="coverage.self.patient"/>
                <operator value="="/>
                <answerBoolean value="false"/>
              </enableWhen>
            </item>
            <item>
              <extension url="http://hl7.org/fhir/StructureDefinition/variable">
                <valueExpression>
                  <name value="linkIdPrefix"/>
                  <language value="text/fhirpath"/>
                  <expression value="'coverage.self.relatedPerson.'"/>
                </valueExpression>
              </extension>
              <linkId value="coverage.self.relatedPerson"/>
              
              <text value="Andere Person"/>
              <type value="group"/>
              <enableWhen>
                <question value="coverage.self.patientRelatedPerson"/>
                <operator value="="/>
                <answerBoolean value="true"/>
              </enableWhen>
              <item>
                <linkId value="coverage.self.relatedPerson.familyName"/>
                
                <text value="Name"/>
                <type value="string"/>
              </item>
              <item>
                <linkId value="coverage.self.relatedPerson.givenName"/>
                
                <text value="Vorname"/>
                <type value="string"/>
              </item>
              <item>
                <linkId value="coverage.self.relatedPerson.phone"/>
                
                <text value="Telefon"/>
                <type value="string"/>
                <repeats value="true"/>
              </item>
              <item>
                <linkId value="coverage.self.relatedPerson.email"/>
                
                <text value="E-Mail"/>
                <type value="string"/>
              </item>
              <item>
                <extension url="http://hl7.org/fhir/uv/sdc/StructureDefinition/sdc-questionnaire-initialExpression">
                  <valueExpression>
                    <language value="text/fhirpath"/>
                    <expression value="%address.line"/>
                  </valueExpression>
                </extension>
                <linkId value="coverage.self.relatedPerson.streetAddressLine"/>
                <text value="Strasse, Hausnummer, Postfach etc."/>
                <type value="string"/>
                <repeats value="true"/>
              </item>
              <item>
                <extension url="http://hl7.org/fhir/uv/sdc/StructureDefinition/sdc-questionnaire-initialExpression">
                  <valueExpression>
                    <language value="text/fhirpath"/>
                    <expression value="%address.postalCode"/>
                  </valueExpression>
                </extension>
                <linkId value="coverage.self.relatedPerson.postalCode"/>
                <text value="PLZ"/>
                <type value="string"/>
              </item>
              <item>
                <extension url="http://hl7.org/fhir/uv/sdc/StructureDefinition/sdc-questionnaire-initialExpression">
                  <valueExpression>
                    <language value="text/fhirpath"/>
                    <expression value="%address.city"/>
                  </valueExpression>
                </extension>
                <linkId value="coverage.self.relatedPerson.city"/>
                <text value="Ort"/>
                <type value="string"/>
              </item>
              <item>
                <extension url="http://hl7.org/fhir/uv/sdc/StructureDefinition/sdc-questionnaire-initialExpression">
                  <valueExpression>
                    <language value="text/fhirpath"/>
                    <expression value="%address.country"/>
                  </valueExpression>
                </extension>
                <linkId value="coverage.self.relatedPerson.country"/>
                <text value="Land"/>
                <type value="string"/>
              </item>
            </item>
          </item>
          <item>
            <linkId value="coverage.other"/>
            
            <text value="Anderer Kostenträger"/>
            <type value="group"/>
            <item>
              <linkId value="coverage.other.name"/>
              
              <text value="Name des Kostenträgers"/>
              <type value="string"/>
            </item>
            <item>
              <linkId value="coverage.other.id"/>
              
              <text value="Beliebige ID"/>
              <type value="string"/>
            </item>
            <item>
              <linkId value="coverage.other.id.note"/>
              
              <text value="Bemerkung zur ID"/>
              <type value="string"/>
            </item>
          </item>
        </item>
        <item>
          <linkId value="sender"/>
          <text value="Absender"/>
          <type value="group"/>
          <required value="true"/>
          <item>
            <extension url="http://hl7.org/fhir/StructureDefinition/variable">
              <valueExpression>
                <name value="senderPractitionerRoles"/>
                <language value="application/x-fhir-query"/>
                <expression value="PractitionerRole?practitioner={{%user.id}}"/>
              </valueExpression>
            </extension>
            <extension url="http://hl7.org/fhir/StructureDefinition/variable">
              <valueExpression>
                <name value="senderPractitionerRole"/>
                <language value="text/fhirpath"/>
                <expression value="%senderPractitionerRoles.entry[0].resource"/>
              </valueExpression>
            </extension>
            <extension url="http://hl7.org/fhir/StructureDefinition/variable">
              <valueExpression>
                <name value="senderOrganizations"/>
                <language value="application/x-fhir-query"/>
                <expression value="Organization?_id={{%senderPractitionerRole.organization.reference}}"/>
              </valueExpression>
            </extension>
            <extension url="http://hl7.org/fhir/StructureDefinition/variable">
              <valueExpression>
                <name value="senderOrganization"/>
                <language value="text/fhirpath"/>
                <expression value="%senderOrganizations.entry[0].resource"/>
              </valueExpression>
            </extension>
            <extension url="http://hl7.org/fhir/StructureDefinition/variable">
              <valueExpression>
                <name value="address"/>
                <language value="text/fhirpath"/>
                <expression value="%senderOrganization.address"/>
              </valueExpression>
            </extension>
            <linkId value="sender.author"/>
            
            <text value="Verantwortlicher"/>
            <type value="group"/>
            <required value="true"/>
            <item>
              <linkId value="sender.author.practitioner"/>
              
              <text value="Verantwortliche Person"/>
              <type value="group"/>
              <item>
                <linkId value="sender.author.practitioner.title"/>
                
                <text value="Titel"/>
                <type value="string"/>
              </item>
              <item>
                <extension url="http://hl7.org/fhir/uv/sdc/StructureDefinition/sdc-questionnaire-initialExpression">
                  <valueExpression>
                    <language value="text/fhirpath"/>
                    <expression value="%user.name.family"/>
                  </valueExpression>
                </extension>
                <linkId value="sender.author.practitioner.familyName"/>
                
                <text value="Name"/>
                <type value="string"/>
              </item>
              <item>
                <extension url="http://hl7.org/fhir/uv/sdc/StructureDefinition/sdc-questionnaire-initialExpression">
                  <valueExpression>
                    <language value="text/fhirpath"/>
                    <expression value="%user.name.given"/>
                  </valueExpression>
                </extension>
                <linkId value="sender.author.practitioner.givenName"/>
                
                <text value="Vorname"/>
                <type value="string"/>
              </item>
              <item>
                <extension url="http://hl7.org/fhir/uv/sdc/StructureDefinition/sdc-questionnaire-initialExpression">
                  <valueExpression>
                    <language value="text/fhirpath"/>
                    <expression value="%user.identifier.where(system='urn:oid:2.51.1.3').value"/>
                  </valueExpression>
                </extension>
                <linkId value="sender.author.practitioner.gln"/>
                
                <text value="GLN"/>
                <type value="string"/>
              </item>
              <item>
                <extension url="http://hl7.org/fhir/uv/sdc/StructureDefinition/sdc-questionnaire-initialExpression">
                  <valueExpression>
                    <language value="text/fhirpath"/>
                    <expression value="%user.identifier.where(system='urn:oid:2.16.756.5.30.1.123.100.2.1.1').value"/>
                  </valueExpression>
                </extension>
                <linkId value="sender.author.practitioner.zsr"/>
                
                <text value="ZSR (fr/it: RCC)"/>
                <type value="string"/>
              </item>
              <item>
                <extension url="http://hl7.org/fhir/uv/sdc/StructureDefinition/sdc-questionnaire-initialExpression">
                  <valueExpression>
                    <language value="text/fhirpath"/>
                    <expression value="%user.telecom.where(system='phone').value"/>
                  </valueExpression>
                </extension>
                <linkId value="sender.author.practitioner.phone"/>
                
                <text value="Telefon"/>
                <type value="string"/>
              </item>
              <item>
                <extension url="http://hl7.org/fhir/uv/sdc/StructureDefinition/sdc-questionnaire-initialExpression">
                  <valueExpression>
                    <language value="text/fhirpath"/>
                    <expression value="%user.telecom.where(system='email').value"/>
                  </valueExpression>
                </extension>
                <linkId value="sender.author.practitioner.email"/>
                
                <text value="E-Mail"/>
                <type value="string"/>
              </item>
            </item>
            <item>
              <extension url="http://hl7.org/fhir/StructureDefinition/variable">
                <valueExpression>
                  <name value="linkIdPrefix"/>
                  <language value="text/fhirpath"/>
                  <expression value="'sender.author.organization.'"/>
                </valueExpression>
              </extension>
              <linkId value="sender.author.organization"/>
              
              <text value="Verantwortliche Organisation"/>
              <type value="group"/>
              <item>
                <extension url="http://hl7.org/fhir/uv/sdc/StructureDefinition/sdc-questionnaire-initialExpression">
                  <valueExpression>
                    <language value="text/fhirpath"/>
                    <expression value="%senderOrganization.name"/>
                  </valueExpression>
                </extension>
                <linkId value="sender.author.organization.name"/>
                
                <text value="Name der Organisation"/>
                <type value="string"/>
              </item>
              <item>
                <extension url="http://hl7.org/fhir/uv/sdc/StructureDefinition/sdc-questionnaire-initialExpression">
                  <valueExpression>
                    <language value="text/fhirpath"/>
                    <expression value="%senderOrganization.identifier.where(system='urn:oid:2.51.1.3').value"/>
                  </valueExpression>
                </extension>
                <linkId value="sender.author.organization.gln"/>
                
                <text value="GLN"/>
                <type value="string"/>
              </item>
              <item>
                <extension url="http://hl7.org/fhir/uv/sdc/StructureDefinition/sdc-questionnaire-initialExpression">
                  <valueExpression>
                    <language value="text/fhirpath"/>
                    <expression value="%address.line"/>
                  </valueExpression>
                </extension>
                <linkId value="sender.author.organization.streetAddressLine"/>
                <text value="Strasse, Hausnummer, Postfach etc."/>
                <type value="string"/>
                <repeats value="true"/>
              </item>
              <item>
                <extension url="http://hl7.org/fhir/uv/sdc/StructureDefinition/sdc-questionnaire-initialExpression">
                  <valueExpression>
                    <language value="text/fhirpath"/>
                    <expression value="%address.postalCode"/>
                  </valueExpression>
                </extension>
                <linkId value="sender.author.organization.postalCode"/>
                <text value="PLZ"/>
                <type value="string"/>
              </item>
              <item>
                <extension url="http://hl7.org/fhir/uv/sdc/StructureDefinition/sdc-questionnaire-initialExpression">
                  <valueExpression>
                    <language value="text/fhirpath"/>
                    <expression value="%address.city"/>
                  </valueExpression>
                </extension>
                <linkId value="sender.author.organization.city"/>
                <text value="Ort"/>
                <type value="string"/>
              </item>
              <item>
                <extension url="http://hl7.org/fhir/uv/sdc/StructureDefinition/sdc-questionnaire-initialExpression">
                  <valueExpression>
                    <language value="text/fhirpath"/>
                    <expression value="%address.country"/>
                  </valueExpression>
                </extension>
                <linkId value="sender.author.organization.country"/>
                <text value="Land"/>
                <type value="string"/>
              </item>
            </item>
          </item>
          <item>
            <linkId value="sender.dataenterer"/>
            
            <text value="Erfasser"/>
            <type value="group"/>
            <item>
              <extension url="http://hl7.org/fhir/StructureDefinition/variable">
                <valueExpression>
                  <name value="linkIdPrefix"/>
                  <language value="text/fhirpath"/>
                  <expression value="'sender.dataenterer.practitioner.'"/>
                </valueExpression>
              </extension>
              <linkId value="sender.dataenterer.practitioner"/>
              
              <text value="Erfassende Person"/>
              <type value="group"/>
              <item>
                <linkId value="sender.dataenterer.practitioner.title"/>
                
                <text value="Titel"/>
                <type value="string"/>
              </item>
              <item>
                <linkId value="sender.dataenterer.practitioner.familyName"/>
                
                <text value="Name"/>
                <type value="string"/>
              </item>
              <item>
                <linkId value="sender.dataenterer.practitioner.givenName"/>
                
                <text value="Vorname"/>
                <type value="string"/>
              </item>
              <item>
                <linkId value="sender.dataenterer.practitioner.phone"/>
                
                <text value="Telefon"/>
                <type value="string"/>
              </item>
              <item>
                <linkId value="sender.dataenterer.practitioner.email"/>
                
                <text value="E-Mail"/>
                <type value="string"/>
              </item>
            </item>
          </item>
        </item>
        <item>
          <linkId value="receiverCopy"/>
          
          <text value="Kopieempfänger (Kopie dieses Auftrags und aller daraus resultierenden Resultate)"/>
          <type value="group"/>
          <item>
            <linkId value="receiverCopy.practitionerRole"/>
            
            <text value="Gesundheitsfachperson oder -organisation"/>
            <type value="group"/>
            <repeats value="true"/>
            <item>
              <extension url="http://hl7.org/fhir/StructureDefinition/variable">
                <valueExpression>
                  <name value="linkIdPrefix"/>
                  <language value="text/fhirpath"/>
                  <expression value="'receiverCopy.practitionerRole.practitioner.'"/>
                </valueExpression>
              </extension>
              <linkId value="receiverCopy.practitionerRole.practitioner"/>
              
              <text value="Gesundheitsfachperson"/>
              <type value="group"/>
              <item>
                <linkId value="receiverCopy.practitionerRole.practitioner.title"/>
                
                <text value="Titel"/>
                <type value="string"/>
              </item>
              <item>
                <linkId value="receiverCopy.practitionerRole.practitioner.familyName"/>
                
                <text value="Name"/>
                <type value="string"/>
              </item>
              <item>
                <linkId value="receiverCopy.practitionerRole.practitioner.givenName"/>
                
                <text value="Vorname"/>
                <type value="string"/>
              </item>
              <item>
                <linkId value="receiverCopy.practitionerRole.practitioner.phone"/>
                
                <text value="Telefon"/>
                <type value="string"/>
              </item>
              <item>
                <linkId value="receiverCopy.practitionerRole.practitioner.email"/>
                
                <text value="E-Mail"/>
                <type value="string"/>
              </item>
            </item>
            <item>
              <extension url="http://hl7.org/fhir/StructureDefinition/variable">
                <valueExpression>
                  <name value="linkIdPrefix"/>
                  <language value="text/fhirpath"/>
                  <expression value="'receiverCopy.practitionerRole.organization.'"/>
                </valueExpression>
              </extension>
              <linkId value="receiverCopy.practitionerRole.organization"/>
              
              <text value="Gesundheitsorganisatiton"/>
              <type value="group"/>
              <item>
                <linkId value="receiverCopy.practitionerRole.organization.name"/>
                
                <text value="Name der Organisation"/>
                <type value="string"/>
              </item>
              <item>
                <extension url="http://hl7.org/fhir/uv/sdc/StructureDefinition/sdc-questionnaire-initialExpression">
                  <valueExpression>
                    <language value="text/fhirpath"/>
                    <expression value="%address.line"/>
                  </valueExpression>
                </extension>
                <linkId value="receiverCopy.practitionerRole.organization.streetAddressLine"/>
                <text value="Strasse, Hausnummer, Postfach etc."/>
                <type value="string"/>
                <repeats value="true"/>
              </item>
              <item>
                <extension url="http://hl7.org/fhir/uv/sdc/StructureDefinition/sdc-questionnaire-initialExpression">
                  <valueExpression>
                    <language value="text/fhirpath"/>
                    <expression value="%address.postalCode"/>
                  </valueExpression>
                </extension>
                <linkId value="receiverCopy.practitionerRole.organization.postalCode"/>
                <text value="PLZ"/>
                <type value="string"/>
              </item>
              <item>
                <extension url="http://hl7.org/fhir/uv/sdc/StructureDefinition/sdc-questionnaire-initialExpression">
                  <valueExpression>
                    <language value="text/fhirpath"/>
                    <expression value="%address.city"/>
                  </valueExpression>
                </extension>
                <linkId value="receiverCopy.practitionerRole.organization.city"/>
                <text value="Ort"/>
                <type value="string"/>
              </item>
              <item>
                <extension url="http://hl7.org/fhir/uv/sdc/StructureDefinition/sdc-questionnaire-initialExpression">
                  <valueExpression>
                    <language value="text/fhirpath"/>
                    <expression value="%address.country"/>
                  </valueExpression>
                </extension>
                <linkId value="receiverCopy.practitionerRole.organization.country"/>
                <text value="Land"/>
                <type value="string"/>
              </item>
            </item>
          </item>
          <item>
            <linkId value="receiverCopy.patient"/>
            
            <text value="Patient selbst"/>
            <type value="boolean"/>
          </item>
          <item>
            <linkId value="receiverCopy.relatedPerson"/>
            
            <text value="Andere Person"/>
            <type value="group"/>
            <repeats value="true"/>
            <item>
              <extension url="http://hl7.org/fhir/StructureDefinition/variable">
                <valueExpression>
                  <name value="linkIdPrefix"/>
                  <language value="text/fhirpath"/>
                  <expression value="'receiverCopy.relatedPerson.'"/>
                </valueExpression>
              </extension>
              <linkId value="receiverCopy.relatedPerson.familyName"/>
              
              <text value="Name"/>
              <type value="string"/>
            </item>
            <item>
              <linkId value="receiverCopy.relatedPerson.givenName"/>
              
              <text value="Vorname"/>
              <type value="string"/>
            </item>
            <item>
              <linkId value="receiverCopy.relatedPerson.phone"/>
              
              <text value="Telefon"/>
              <type value="string"/>
              <repeats value="true"/>
            </item>
            <item>
              <linkId value="receiverCopy.relatedPerson.email"/>
              
              <text value="E-Mail"/>
              <type value="string"/>
            </item>
            <item>
              <extension url="http://hl7.org/fhir/uv/sdc/StructureDefinition/sdc-questionnaire-initialExpression">
                <valueExpression>
                  <language value="text/fhirpath"/>
                  <expression value="%address.line"/>
                </valueExpression>
              </extension>
              <linkId value="receiverCopy.relatedPerson.streetAddressLine"/>
              <text value="Strasse, Hausnummer, Postfach etc."/>
              <type value="string"/>
              <repeats value="true"/>
            </item>
            <item>
              <extension url="http://hl7.org/fhir/uv/sdc/StructureDefinition/sdc-questionnaire-initialExpression">
                <valueExpression>
                  <language value="text/fhirpath"/>
                  <expression value="%address.postalCode"/>
                </valueExpression>
              </extension>
              <linkId value="receiverCopy.relatedPerson.postalCode"/>
              <text value="PLZ"/>
              <type value="string"/>
            </item>
            <item>
              <extension url="http://hl7.org/fhir/uv/sdc/StructureDefinition/sdc-questionnaire-initialExpression">
                <valueExpression>
                  <language value="text/fhirpath"/>
                  <expression value="%address.city"/>
                </valueExpression>
              </extension>
              <linkId value="receiverCopy.relatedPerson.city"/>
              <text value="Ort"/>
              <type value="string"/>
            </item>
            <item>
              <extension url="http://hl7.org/fhir/uv/sdc/StructureDefinition/sdc-questionnaire-initialExpression">
                <valueExpression>
                  <language value="text/fhirpath"/>
                  <expression value="%address.country"/>
                </valueExpression>
              </extension>
              <linkId value="receiverCopy.relatedPerson.country"/>
              <text value="Land"/>
              <type value="string"/>
            </item>
          </item>
        </item>
        <item>
          <linkId value="antecedentEpisodeOfCare"/>
          
          <text value="Vorgängiger Aufenthalt in Spital / Heim"/>
          <type value="group"/>
          <item>
            <linkId value="antecedentEpisodeOfCare.start"/>
            
            <text value="Von"/>
            <type value="dateTime"/>
          </item>
          <item>
            <linkId value="antecedentEpisodeOfCare.end"/>
            
            <text value="Bis"/>
            <type value="dateTime"/>
          </item>
          <item>
            <extension url="http://hl7.org/fhir/StructureDefinition/variable">
              <valueExpression>
                <name value="linkIdPrefix"/>
                <language value="text/fhirpath"/>
                <expression value="'antecedentEpisodeOfCare.managingOrganization.'"/>
              </valueExpression>
            </extension>
            <linkId value="antecedentEpisodeOfCare.managingOrganization"/>
            
            <text value="Spital /Heim"/>
            <type value="group"/>
            <item>
              <linkId value="antecedentEpisodeOfCare.managingOrganization.name"/>
              
              <text value="Name der Organisation"/>
              <type value="string"/>
            </item>
            <item>
              <extension url="http://hl7.org/fhir/uv/sdc/StructureDefinition/sdc-questionnaire-initialExpression">
                <valueExpression>
                  <language value="text/fhirpath"/>
                  <expression value="%address.line"/>
                </valueExpression>
              </extension>
              <linkId value="antecedentEpisodeOfCare.managingOrganization.streetAddressLine"/>
              <text value="Strasse, Hausnummer, Postfach etc."/>
              <type value="string"/>
              <repeats value="true"/>
            </item>
            <item>
              <extension url="http://hl7.org/fhir/uv/sdc/StructureDefinition/sdc-questionnaire-initialExpression">
                <valueExpression>
                  <language value="text/fhirpath"/>
                  <expression value="%address.postalCode"/>
                </valueExpression>
              </extension>
              <linkId value="antecedentEpisodeOfCare.managingOrganization.postalCode"/>
              <text value="PLZ"/>
              <type value="string"/>
            </item>
            <item>
              <extension url="http://hl7.org/fhir/uv/sdc/StructureDefinition/sdc-questionnaire-initialExpression">
                <valueExpression>
                  <language value="text/fhirpath"/>
                  <expression value="%address.city"/>
                </valueExpression>
              </extension>
              <linkId value="antecedentEpisodeOfCare.managingOrganization.city"/>
              <text value="Ort"/>
              <type value="string"/>
            </item>
            <item>
              <extension url="http://hl7.org/fhir/uv/sdc/StructureDefinition/sdc-questionnaire-initialExpression">
                <valueExpression>
                  <language value="text/fhirpath"/>
                  <expression value="%address.country"/>
                </valueExpression>
              </extension>
              <linkId value="antecedentEpisodeOfCare.managingOrganization.country"/>
              <text value="Land"/>
              <type value="string"/>
            </item>
          </item>
        </item>
        <item>
          <linkId value="appointment"/>
          
          <text value="Ort und Zeit der Durchführung der angeforderten Leistung"/>
          <type value="group"/>
          <repeats value="true"/>
          <item>
            <extension url="http://hl7.org/fhir/StructureDefinition/variable">
              <valueExpression>
                <name value="linkIdPrefix"/>
                <language value="text/fhirpath"/>
                <expression value="'appointment.location.'"/>
              </valueExpression>
            </extension>
            <linkId value="appointment.location"/>
            
            <text value="Ort der Durchführung"/>
            <type value="group"/>
            <item>
              <linkId value="appointment.location.name"/>
              
              <text value="Name"/>
              <type value="string"/>
              <required value="true"/>
            </item>
            <item>
              <linkId value="appointment.location.phone"/>
              
              <text value="Telefon"/>
              <type value="string"/>
            </item>
            <item>
              <linkId value="appointment.location.email"/>
              
              <text value="E-Mail"/>
              <type value="string"/>
            </item>
            <item>
              <extension url="http://hl7.org/fhir/uv/sdc/StructureDefinition/sdc-questionnaire-initialExpression">
                <valueExpression>
                  <language value="text/fhirpath"/>
                  <expression value="%address.line"/>
                </valueExpression>
              </extension>
              <linkId value="appointment.location.streetAddressLine"/>
              <text value="Strasse, Hausnummer, Postfach etc."/>
              <type value="string"/>
              <repeats value="true"/>
            </item>
            <item>
              <extension url="http://hl7.org/fhir/uv/sdc/StructureDefinition/sdc-questionnaire-initialExpression">
                <valueExpression>
                  <language value="text/fhirpath"/>
                  <expression value="%address.postalCode"/>
                </valueExpression>
              </extension>
              <linkId value="appointment.location.postalCode"/>
              <text value="PLZ"/>
              <type value="string"/>
            </item>
            <item>
              <extension url="http://hl7.org/fhir/uv/sdc/StructureDefinition/sdc-questionnaire-initialExpression">
                <valueExpression>
                  <language value="text/fhirpath"/>
                  <expression value="%address.city"/>
                </valueExpression>
              </extension>
              <linkId value="appointment.location.city"/>
              <text value="Ort"/>
              <type value="string"/>
            </item>
            <item>
              <extension url="http://hl7.org/fhir/uv/sdc/StructureDefinition/sdc-questionnaire-initialExpression">
                <valueExpression>
                  <language value="text/fhirpath"/>
                  <expression value="%address.country"/>
                </valueExpression>
              </extension>
              <linkId value="appointment.location.country"/>
              <text value="Land"/>
              <type value="string"/>
            </item>
          </item>
          <item>
            <linkId value="appointment.requestedPeriod"/>
            
            <text value="Datum und Zeit, wann der Termin bevorzugt geplant werden soll"/>
            <type value="group"/>
            <item>
              <linkId value="appointment.requestedPeriod.start"/>
              
              <text value="Von"/>
              <type value="dateTime"/>
            </item>
            <item>
              <linkId value="appointment.requestedPeriod.end"/>
              
              <text value="Bis"/>
              <type value="dateTime"/>
            </item>
          </item>
          <item>
            <linkId value="appointment.status"/>
            
            <text value="Status"/>
            <type value="choice"/>
            <required value="true"/>
            <answerOption>
              <valueCoding>
                <system value="http://hl7.org/fhir/appointmentstatus"/>
                <code value="proposed"/>
                <display value="Wunsch des Patienten (vorgeschlagen)"/>
              </valueCoding>
              <initialSelected value="true"/>
            </answerOption>
            <answerOption>
              <valueCoding>
                <system value="http://hl7.org/fhir/appointmentstatus"/>
                <code value="pending"/>
                <display value="Vom Patienten bestätigt, aber vom Leistungserbringer noch nicht (ausstehend)"/>
              </valueCoding>
            </answerOption>
            <answerOption>
              <valueCoding>
                <system value="http://hl7.org/fhir/appointmentstatus"/>
                <code value="booked"/>
                <display value="Vom Patienten und Leistungserbringer bestätigt (gebucht)"/>
              </valueCoding>
            </answerOption>
          </item>
          <item>
            <linkId value="appointment.patientInstruction"/>
            
            <text value="Patienteninformation für diesen Termin"/>
            <type value="string"/>
          </item>
        </item>
        <item>
          <linkId value="consent"/>
          
          <text value="Einverständniserklärung"/>
          <type value="group"/>
          <item>
            <linkId value="patient.consent.statement"/>
            <text value="Ist der Patient über die Anmeldung informiert und explizit einverstanden?"/>
            <type value="choice"/>
            <answerOption>
              <valueCoding>
                <system value="http://fhir.ch/ig/ch-orf/CodeSystem/ch-orf-cs-consentstatus"/>
                <code value="ExplicitAgreement"/>
                <display value="Patient is informed and has explicitly agreed"/>
              </valueCoding>
            </answerOption>
            <answerOption>
              <valueCoding>
                <system value="http://fhir.ch/ig/ch-orf/CodeSystem/ch-orf-cs-consentstatus"/>
                <code value="Other"/>
                <display value="Other situation such as 'implicit agreement', 'agreed by legal guardian' etc."/>
              </valueCoding>
            </answerOption>
            <item>
              <linkId value="patient.consent.statement.note"/>
              <text value="Anmerkung"/>
              <type value="string"/>
            </item>
          </item>
        </item>
        <item>
          <linkId value="note"/>
          <text value="Bemerkungen"/>
          <type value="group"/>
          <repeats value="true"/>
          <item>
            <linkId value="note.text"/>
            
            <text value="Kommentar"/>
            <type value="string"/>
          </item>
        </item>
      </Questionnaire>
    </resource>
  </entry>
  <entry>
    <fullUrl value="urn:uuid:a5c91b7a-8c58-4a71-a1bc-08bd093681b8"/>
    <resource>
      <PractitionerRole>
        <language value="de-CH"/>
        <practitioner>
          <reference value="urn:uuid:fa460d46-61d2-43bc-8451-35e7637ca4cd"/>
        </practitioner>
      </PractitionerRole>
    </resource>
  </entry>
  <entry>
    <fullUrl value="urn:uuid:fa460d46-61d2-43bc-8451-35e7637ca4cd"/>
    <resource>
      <Practitioner>
        <language value="de-CH"/>
        <name>
          <family value="Röntgen"/>
          <given value="Hans"/>
          <prefix value="Dr. med.">
            <extension url="http://hl7.org/fhir/StructureDefinition/iso21090-EN-qualifier">
              <valueCode value="AC"/>
            </extension>
          </prefix>
        </name>
        <telecom>
          <system value="phone"/>
          <value value="044 412 00 99"/>
        </telecom>
        <telecom>
          <system value="email"/>
          <value value="hans.roentgen@kantonsspital.ch"/>
        </telecom>
      </Practitioner>
    </resource>
  </entry>
  <entry>
    <fullUrl value="urn:uuid:9fec93d4-ac30-4d89-8975-e5e2ebabd28a"/>
    <resource>
      <PractitionerRole>
        <language value="de-CH"/>
        <practitioner>
          <reference value="urn:uuid:265ff485-c1d8-4c92-a515-35a52887d425"/>
        </practitioner>
      </PractitionerRole>
    </resource>
  </entry>
  <entry>
    <fullUrl value="urn:uuid:265ff485-c1d8-4c92-a515-35a52887d425"/>
    <resource>
      <Practitioner>
        <language value="de-CH"/>
        <name>
          <family value="Meier"/>
          <given value="Sabine"/>
          <prefix value="Dr. med.">
            <extension url="http://hl7.org/fhir/StructureDefinition/iso21090-EN-qualifier">
              <valueCode value="AC"/>
            </extension>
          </prefix>
        </name>
        <telecom>
          <system value="phone"/>
          <value value="044 333 22 11"/>
        </telecom>
        <telecom>
          <system value="email"/>
          <value value="sabine.meier@praxisseeblick.ch"/>
        </telecom>
      </Practitioner>
    </resource>
  </entry>
  <entry>
    <fullUrl value="urn:uuid:305422f3-dbfb-4ce0-bd12-e26d0024f550"/>
    <resource>
      <PractitionerRole>
        <language value="de-CH"/>
        <practitioner>
          <reference value="urn:uuid:a52dafd4-3a96-463c-88b1-e7096f21dc70"/>
        </practitioner>
        <organization>
          <reference value="urn:uuid:aa7ac1e4-fa1f-4d75-a6ba-a6e1eb022c44"/>
        </organization>
      </PractitionerRole>
    </resource>
  </entry>
  <entry>
    <fullUrl value="urn:uuid:a52dafd4-3a96-463c-88b1-e7096f21dc70"/>
    <resource>
      <Practitioner>
        <language value="de-CH"/>
        <identifier>
          <system value="urn:oid:2.51.1.3"/>
          <value value="7601000201041"/>
        </identifier>
        <identifier>
          <system value="urn:oid:2.16.756.5.30.1.123.100.2.1.1"/>
          <value value="Y604801"/>
        </identifier>
        <name>
          <family value="Röntgen"/>
          <given value="Hans"/>
          <prefix value="Dr. med.">
            <extension url="http://hl7.org/fhir/StructureDefinition/iso21090-EN-qualifier">
              <valueCode value="AC"/>
            </extension>
          </prefix>
        </name>
        <telecom>
          <system value="phone"/>
          <value value="044 412 00 99"/>
        </telecom>
        <telecom>
          <system value="email"/>
          <value value="hans.roentgen@kantonsspital.ch"/>
        </telecom>
      </Practitioner>
    </resource>
  </entry>
  <entry>
    <fullUrl value="urn:uuid:aa7ac1e4-fa1f-4d75-a6ba-a6e1eb022c44"/>
    <resource>
      <Organization>
        <language value="de-CH"/>
        <name value="Kantonsspital"/>
        <address>
          <line value="Kantonsstrasse 14"/>
          <line value="Postfach 14"/>
          <city value="Zürich"/>
          <postalCode value="8000"/>
          <country value="Schweiz"/>
        </address>
      </Organization>
    </resource>
  </entry>
  <entry>
    <fullUrl value="urn:uuid:c1ed3d1d-8aff-401f-ae87-16e178323a10"/>
    <resource>
      <RelatedPerson>
        <language value="de-CH"/>
        <patient>
          <reference value="urn:uuid:aaddb7b1-eb51-4426-8182-42f66fbf24d0"/>
        </patient>
        <name>
          <family value="Musterfrau"/>
          <given value="Fritz"/>
        </name>
      </RelatedPerson>
    </resource>
  </entry>
  <entry>
    <fullUrl value="urn:uuid:11a6e0bc-534a-478a-b729-5d336601e789"/>
    <resource>
      <PractitionerRole>
        <language value="de-CH"/>
        <practitioner>
          <reference value="urn:uuid:2b7e232d-7f46-48d3-877c-93e7db6d0576"/>
        </practitioner>
      </PractitionerRole>
    </resource>
  </entry>
  <entry>
    <fullUrl value="urn:uuid:2b7e232d-7f46-48d3-877c-93e7db6d0576"/>
    <resource>
      <Practitioner>
        <language value="de-CH"/>
        <name>
          <family value="Meier"/>
          <given value="Sabine"/>
          <prefix value="Dr. med.">
            <extension url="http://hl7.org/fhir/StructureDefinition/iso21090-EN-qualifier">
              <valueCode value="AC"/>
            </extension>
          </prefix>
        </name>
      </Practitioner>
    </resource>
  </entry>
  <entry>
    <fullUrl value="urn:uuid:f435f713-5fb9-42a8-b3cc-7033ba75e3d5"/>
    <resource>
      <Encounter>
        <language value="de-CH"/>
        <extension url="http://fhir.ch/ig/ch-orf/StructureDefinition/ch-orf-desiredaccommodation">
          <valueCoding>
            <system value="http://fhir.ch/ig/ch-core/CodeSystem/bfs-medstats-21-encountertype"/>
            <code value="2"/>
            <display value="halbprivat"/>
          </valueCoding>
        </extension>
        <status value="planned"/>
        <class>
          <system value="http://terminology.hl7.org/CodeSystem/v3-ActCode"/>
          <code value="EMER"/>
        </class>
        <subject>
          <reference value="urn:uuid:aaddb7b1-eb51-4426-8182-42f66fbf24d0"/>
        </subject>
      </Encounter>
    </resource>
  </entry>
  <entry>
    <fullUrl value="urn:uuid:4d45ffb2-6335-4cf2-9d16-ad4387272345"/>
    <resource>
      <Coverage>
        <language value="de-CH"/>
        <contained>
          <Organization>
            <id value="org"/>
            <name value="Sanitas"/>
          </Organization>
        </contained>
        <identifier>
          <type>
            <coding>
              <system value="http://fhir.ch/ig/ch-orf/CodeSystem/ch-orf-cs-coverageidentifiertype"/>
              <code value="VeKa"/>
            </coding>
          </type>
          <value value="80756015090002647590"/>
        </identifier>
        <status value="active"/>
        <type>
          <coding>
            <system value="http://fhir.ch/ig/ch-core/CodeSystem/bfs-medstats-25-mainguarantor"/>
            <code value="1"/>
          </coding>
        </type>
        <beneficiary>
          <reference value="urn:uuid:aaddb7b1-eb51-4426-8182-42f66fbf24d0"/>
        </beneficiary>
        <payor>
          <reference value="#org"/>
        </payor>
      </Coverage>
    </resource>
  </entry>
  <entry>
    <fullUrl value="urn:uuid:4388146d-9909-4613-b0c5-2ac3de31dfb8"/>
    <resource>
      <PractitionerRole>
        <language value="de-CH"/>
        <practitioner>
          <reference value="urn:uuid:46ff1cb2-4ece-4952-8fdd-ffc23727f7cc"/>
        </practitioner>
        <organization>
          <reference value="urn:uuid:d8d014fe-01b0-403d-b8a3-1caa177d59f6"/>
        </organization>
      </PractitionerRole>
    </resource>
  </entry>
  <entry>
    <fullUrl value="urn:uuid:46ff1cb2-4ece-4952-8fdd-ffc23727f7cc"/>
    <resource>
      <Practitioner>
        <language value="de-CH"/>
        <identifier>
          <system value="urn:oid:2.51.1.3"/>
          <value value="7601000618627"/>
        </identifier>
        <identifier>
          <system value="urn:oid:2.16.756.5.30.1.123.100.2.1.1"/>
          <value value="L248519"/>
        </identifier>
        <name>
          <family value="Meier"/>
          <given value="Sabine"/>
          <prefix value="Dr. med.">
            <extension url="http://hl7.org/fhir/StructureDefinition/iso21090-EN-qualifier">
              <valueCode value="AC"/>
            </extension>
          </prefix>
        </name>
        <telecom>
          <system value="phone"/>
          <value value="044 333 22 11"/>
        </telecom>
        <telecom>
          <system value="email"/>
          <value value="sabine.meier@praxisseeblick.ch"/>
        </telecom>
      </Practitioner>
    </resource>
  </entry>
  <entry>
    <fullUrl value="urn:uuid:d8d014fe-01b0-403d-b8a3-1caa177d59f6"/>
    <resource>
      <Organization>
        <language value="de-CH"/>
        <name value="Praxis Seeblick"/>
        <address>
          <line value="Seestrasse 133"/>
          <line value="Haus C"/>
          <city value="Zürich"/>
          <postalCode value="8000"/>
          <country value="Schweiz"/>
        </address>
      </Organization>
    </resource>
  </entry>
  <entry>
    <fullUrl value="urn:uuid:40300c5d-0259-438a-88b8-4b24a9c6bf79"/>
    <resource>
      <PractitionerRole>
        <language value="de-CH"/>
        <practitioner>
          <reference value="urn:uuid:99dbf210-4384-4a23-8be4-524d1809bb39"/>
        </practitioner>
        <organization>
          <reference value="urn:uuid:d8d014fe-01b0-403d-b8a3-1caa177d59f6"/>
        </organization>
      </PractitionerRole>
    </resource>
  </entry>
  <entry>
    <fullUrl value="urn:uuid:99dbf210-4384-4a23-8be4-524d1809bb39"/>
    <resource>
      <Practitioner>
        <language value="de-CH"/>
        <name>
          <family value="Boss"/>
          <given value="Stabilo"/>
        </name>
        <telecom>
          <system value="phone"/>
          <value value="044 333 22 12"/>
        </telecom>
        <telecom>
          <system value="email"/>
          <value value="stabilo.boss@praxisseeblick.ch"/>
        </telecom>
      </Practitioner>
    </resource>
  </entry>
  <entry>
    <fullUrl value="urn:uuid:b7fdf56d-3bc9-48d9-b470-d1cafb8a0716"/>
    <resource>
      <PractitionerRole>
        <language value="de-CH"/>
        <practitioner>
          <reference value="urn:uuid:ba1d8d1f-31ad-4a4f-961e-791cc5444134"/>
        </practitioner>
        <organization>
          <reference value="urn:uuid:0398e29f-0a03-4783-a8db-69c41afa5948"/>
        </organization>
      </PractitionerRole>
    </resource>
  </entry>
  <entry>
    <fullUrl value="urn:uuid:ba1d8d1f-31ad-4a4f-961e-791cc5444134"/>
    <resource>
      <Practitioner>
        <language value="de-CH"/>
        <name>
          <family value="Meier"/>
          <given value="Sabine"/>
          <prefix value="Dr. med.">
            <extension url="http://hl7.org/fhir/StructureDefinition/iso21090-EN-qualifier">
              <valueCode value="AC"/>
            </extension>
          </prefix>
        </name>
        <telecom>
          <system value="phone"/>
          <value value="044 333 22 11"/>
        </telecom>
        <telecom>
          <system value="email"/>
          <value value="sabine.meier@praxisseeblick.ch"/>
        </telecom>
      </Practitioner>
    </resource>
  </entry>
  <entry>
    <fullUrl value="urn:uuid:0398e29f-0a03-4783-a8db-69c41afa5948"/>
    <resource>
      <Organization>
        <language value="de-CH"/>
        <name value="Praxis Seeblick"/>
        <address>
          <line value="Seestrasse 133"/>
          <city value="Zürich"/>
          <postalCode value="8000"/>
          <country value="Schweiz"/>
        </address>
      </Organization>
    </resource>
  </entry>
  <entry>
    <fullUrl value="urn:uuid:9ba0fe13-1d13-4785-b408-1c69dda0d4c2"/>
    <resource>
      <EpisodeOfCare>
        <language value="de-CH"/>
        <status value="finished"/>
        <statusHistory>
          <status value="finished"/>
          <period>
            <start value="2023-05-22"/>
            <end value="2023-05-27"/>
          </period>
        </statusHistory>
        <patient>
          <reference value="urn:uuid:aaddb7b1-eb51-4426-8182-42f66fbf24d0"/>
        </patient>
        <managingOrganization>
          <reference value="urn:uuid:344e4508-77e1-43ea-b401-b6c4f428b962"/>
        </managingOrganization>
      </EpisodeOfCare>
    </resource>
  </entry>
  <entry>
    <fullUrl value="urn:uuid:344e4508-77e1-43ea-b401-b6c4f428b962"/>
    <resource>
      <Organization>
        <language value="de-CH"/>
        <name value="Spital Hinterfultigen"/>
      </Organization>
    </resource>
  </entry>
</Bundle>