<Bundle 
  xmlns="http://hl7.org/fhir">
  <id value="external-diagnostics-order"/>
  <meta>
    <profile value="http://fhir.ch/ig/ch-orf/StructureDefinition/ch-orf-document" />
  </meta>
  <language value="de-CH"/>
  <identifier>
    <system value="urn:ietf:rfc:3986"/>
    <value value="urn:uuid:8a03521a-2380-49a4-85bc-f66cbec2d6fd"/>
  </identifier>
  <type value="document"/>
  <timestamp value="2023-06-13T11:51:44+00:00"/>
  <entry>
    <fullUrl value="urn:uuid:668a514b-8544-4e3b-82b4-83b1a45e3a21"/>
    <resource>
      <Composition>
        <language value="de-CH"/>
        <extension url="http://fhir.ch/ig/ch-orf/StructureDefinition/ch-orf-urgentnoficationcontactforthisdocument">
          <valueReference>
            <reference value="urn:uuid:c25edd30-4206-440d-aeaa-4e27ffbb21b4"/>
          </valueReference>
        </extension>
        <extension url="http://fhir.ch/ig/ch-orf/StructureDefinition/ch-orf-urgentnoficationcontactfortheresponsetothisdocument">
          <valueReference>
            <reference value="urn:uuid:2e5e9263-ef5f-41d0-bf46-74797451b149"/>
          </valueReference>
        </extension>
        <extension url="http://fhir.ch/ig/ch-orf/StructureDefinition/ch-orf-receiver">
          <valueReference>
            <reference value="urn:uuid:018977be-801c-46e6-81a8-daed933558fe"/>
          </valueReference>
        </extension>
        <status value="final"/>
        <type>
          <coding>
            <system value="http://snomed.info/sct"/>
            <code value="419891008"/>
          </coding>
        </type>
        <category>
          <coding>
            <system value="http://snomed.info/sct"/>
            <code value="721963009"/>
          </coding>
        </category>
        <subject>
          <reference value="urn:uuid:3a12ef44-6acd-4736-924c-cd60b311da50"/>
        </subject>
        <date value="2023-06-13T11:51:44+00:00"/>
        <author>
          <reference value="urn:uuid:aa73b56c-7bf7-4465-8388-be59f5c35b91"/>
        </author>
        <title value="Order and Referral by Form"/>
        <section>
          <title value="Order-Referral"/>
          <code>
            <coding>
              <system value="http://loinc.org"/>
              <code value="93037-0"/>
              <display value="Portable medical order form"/>
            </coding>
          </code>
          <entry>
            <reference value="urn:uuid:68693de9-c8d7-45b6-b4c0-b24788846716"/>
          </entry>
          <entry>
            <reference value="urn:uuid:4d15b80e-8813-47b1-9fd2-5fbb96b87e7a"/>
          </entry>
          <entry>
            <reference value="http://fhir.ch/ig/ch-orf/Questionnaire/order-referral-form"/>
          </entry>
        </section>
      </Composition>
    </resource>
  </entry>
  <entry>
    <fullUrl value="urn:uuid:3a12ef44-6acd-4736-924c-cd60b311da50"/>
    <resource>
      <Patient>
        <language value="de-CH"/>
        <identifier>
          <type>
            <coding>
              <system value="http://terminology.hl7.org/CodeSystem/v2-0203"/>
              <code value="MR"/>
            </coding>
          </type>
          <system value="urn:oid:2.999.1.2.3.4"/>
          <value value="44.34.9472.1"/>
        </identifier>
        <name>
          <family value="Ufferer"/>
          <given value="Susanna"/>
        </name>
        <name>
          <use value="maiden"/>
          <family value="Leidend"/>
        </name>
        <telecom>
          <system value="phone"/>
          <value value="079 979 79 79"/>
        </telecom>
        <telecom>
          <system value="email"/>
          <value value="susanna@ufferer.ch"/>
        </telecom>
        <gender value="female"/>
        <birthDate value="1970-03-14"/>
        <address>
          <line value="Musterweg"/>
          <line value="6a"/>
          <city value="Zürich"/>
          <postalCode value="8000"/>
          <country value="Schweiz"/>
        </address>
      </Patient>
    </resource>
  </entry>
  <entry>
    <fullUrl value="urn:uuid:68693de9-c8d7-45b6-b4c0-b24788846716"/>
    <resource>
      <QuestionnaireResponse>
        <meta>
          <profile value="http://fhir.ch/ig/ch-orf/StructureDefinition/ch-orf-questionnaireresponse"/>
        </meta>
        <language value="de-CH"/>
        <questionnaire value="http://fhir.ch/ig/ch-orf/Questionnaire/order-referral-form"/>
        <status value="completed"/>
        <item>
          <linkId value="order"/>
          <text value="Auftrag"/>
          <item>
            <linkId value="order.placerOrderIdentifier"/>
            <text value="Auftragsnummer des Auftraggebers"/>
            <answer>
              <valueString value="60823"/>
            </answer>
          </item>
          <item>
            <linkId value="order.placerOrderIdentifierDomain"/>
            <text value="Identifier Domain der Auftragsnummer des Auftraggebers"/>
            <answer>
              <valueString value="urn:oid:2.999.66.77.88"/>
            </answer>
          </item>
          <item>
            <linkId value="order.notificationContactDocument"/>
            <text value="Dringender Benachrichtigungskontakt für dieses Dokument"/>
            <item>
              <linkId value="order.notificationContactDocument.practitioner"/>
              <text value="Zu benachrichtigende Person"/>
              <item>
                <linkId value="order.notificationContactDocument.practitioner.title"/>
                <text value="Titel"/>
                <answer>
                  <valueString value="Dr. med."/>
                </answer>
              </item>
              <item>
                <linkId value="order.notificationContactDocument.practitioner.familyName"/>
                <text value="Name"/>
                <answer>
                  <valueString value="Iller"/>
                </answer>
              </item>
              <item>
                <linkId value="order.notificationContactDocument.practitioner.givenName"/>
                <text value="Vorname"/>
                <answer>
                  <valueString value="Frederica"/>
                </answer>
              </item>
              <item>
                <linkId value="order.notificationContactDocument.practitioner.phone"/>
                <text value="Telefon"/>
                <answer>
                  <valueString value="044 503 44 44"/>
                </answer>
              </item>
              <item>
                <linkId value="order.notificationContactDocument.practitioner.email"/>
                <text value="E-Mail"/>
                <answer>
                  <valueString value="f.iller@univerityhospital.ch"/>
                </answer>
              </item>
            </item>
          </item>
          <item>
            <linkId value="order.notificationContactDocumentResponse"/>
            <text value="Dringender Benachrichtigungskontakt für die Antwort auf dieses Dokument"/>
            <item>
              <linkId value="order.notificationContactDocumentResponse.practitioner"/>
              <text value="Zu benachrichtigende Person"/>
              <item>
                <linkId value="order.notificationContactDocumentResponse.practitioner.title"/>
                <text value="Titel"/>
                <answer>
                  <valueString value="Dr. med."/>
                </answer>
              </item>
              <item>
                <linkId value="order.notificationContactDocumentResponse.practitioner.familyName"/>
                <text value="Name"/>
                <answer>
                  <valueString value="Lacer"/>
                </answer>
              </item>
              <item>
                <linkId value="order.notificationContactDocumentResponse.practitioner.givenName"/>
                <text value="Vorname"/>
                <answer>
                  <valueString value="Paul"/>
                </answer>
              </item>
              <item>
                <linkId value="order.notificationContactDocumentResponse.practitioner.phone"/>
                <text value="Telefon"/>
                <answer>
                  <valueString value="044 987 65 43"/>
                </answer>
              </item>
              <item>
                <linkId value="order.notificationContactDocumentResponse.practitioner.email"/>
                <text value="E-Mail"/>
                <answer>
                  <valueString value="p.lacer@regionalhospital.ch"/>
                </answer>
              </item>
            </item>
          </item>
          <item>
            <linkId value="order.priority"/>
            <text value="Auftragspriorität"/>
            <answer>
              <valueCoding>
                <system value="http://hl7.org/fhir/request-priority"/>
                <code value="stat"/>
              </valueCoding>
            </answer>
          </item>
        </item>
        <item>
          <linkId value="receiver"/>
          <text value="Empfänger"/>
          <item>
            <linkId value="receiver.practitioner"/>
            <text value="Empfangende Person"/>
            <item>
              <linkId value="receiver.practitioner.title"/>
              <text value="Titel"/>
              <answer>
                <valueString value="Dr. med."/>
              </answer>
            </item>
            <item>
              <linkId value="receiver.practitioner.familyName"/>
              <text value="Name"/>
              <answer>
                <valueString value="Iller"/>
              </answer>
            </item>
            <item>
              <linkId value="receiver.practitioner.givenName"/>
              <text value="Vorname"/>
              <answer>
                <valueString value="Frederica"/>
              </answer>
            </item>
            <item>
              <linkId value="receiver.practitioner.gln"/>
              <text value="GLN"/>
              <answer>
                <valueString value="7601000618306"/>
              </answer>
            </item>
            <item>
              <linkId value="receiver.practitioner.phone"/>
              <text value="Telefon"/>
              <answer>
                <valueString value="044 503 44 44"/>
              </answer>
            </item>
            <item>
              <linkId value="receiver.practitioner.email"/>
              <text value="E-Mail"/>
              <answer>
                <valueString value="f.iller@universityhospital.ch"/>
              </answer>
            </item>
          </item>
          <item>
            <linkId value="receiver.organization"/>
            <text value="Empfangende Organisation"/>
            <item>
              <linkId value="receiver.organization.name"/>
              <text value="Name der Organisation"/>
              <answer>
                <valueString value="University Hospital"/>
              </answer>
            </item>
            <item>
              <linkId value="receiver.organization.streetAddressLine"/>
              <text value="Strasse, Hausnummer, Postfach etc."/>
              <answer>
                <valueString value="Uniweg 33"/>
              </answer>
              <answer>
                <valueString value="Radiology"/>
              </answer>
            </item>
            <item>
              <linkId value="receiver.organization.postalCode"/>
              <text value="PLZ"/>
              <answer>
                <valueString value="8000"/>
              </answer>
            </item>
            <item>
              <linkId value="receiver.organization.city"/>
              <text value="Ort"/>
              <answer>
                <valueString value="Zürich"/>
              </answer>
            </item>
            <item>
              <linkId value="receiver.organization.country"/>
              <text value="Land"/>
              <answer>
                <valueString value="Schweiz"/>
              </answer>
            </item>
          </item>
        </item>
        <item>
          <linkId value="patient"/>
          <text value="Patient"/>
          <item>
            <linkId value="patient.familyName"/>
            <text value="Name"/>
            <answer>
              <valueString value="Ufferer"/>
            </answer>
          </item>
          <item>
            <linkId value="patient.maidenName"/>
            <text value="Ledigname"/>
            <answer>
              <valueString value="Leidend"/>
            </answer>
          </item>
          <item>
            <linkId value="patient.givenName"/>
            <text value="Vorname"/>
            <answer>
              <valueString value="Susanna"/>
            </answer>
          </item>
          <item>
            <linkId value="patient.localPid"/>
            <text value="Lokale Patienten-ID"/>
            <answer>
              <valueString value="44.34.9472.1"/>
            </answer>
          </item>
          <item>
            <linkId value="patient.localPidDomain"/>
            <text value="Lokale Patienten-ID Domain"/>
            <answer>
              <valueString value="urn:oid:2.999.1.2.3.4"/>
            </answer>
          </item>
          <item>
            <linkId value="patient.birthDate"/>
            <text value="Geburtsdatum"/>
            <answer>
              <valueDate value="1970-03-14"/>
            </answer>
          </item>
          <item>
            <linkId value="patient.gender"/>
            <text value="Geschlecht"/>
            <answer>
              <valueCoding>
                <system value="http://hl7.org/fhir/administrative-gender"/>
                <code value="female"/>
              </valueCoding>
            </answer>
          </item>
          <item>
            <linkId value="patient.phone"/>
            <text value="Telefon"/>
            <answer>
              <valueString value="079 979 79 79"/>
            </answer>
          </item>
          <item>
            <linkId value="patient.email"/>
            <text value="E-Mail"/>
            <answer>
              <valueString value="susanna@ufferer.ch"/>
            </answer>
          </item>
          <item>
            <linkId value="patient.streetAddressLine"/>
            <text value="Strasse, Hausnummer, Postfach etc."/>
            <answer>
              <valueString value="Musterweg"/>
            </answer>
            <answer>
              <valueString value="6a"/>
            </answer>
          </item>
          <item>
            <linkId value="patient.postalCode"/>
            <text value="PLZ"/>
            <answer>
              <valueString value="8000"/>
            </answer>
          </item>
          <item>
            <linkId value="patient.city"/>
            <text value="Ort"/>
            <answer>
              <valueString value="Zürich"/>
            </answer>
          </item>
          <item>
            <linkId value="patient.country"/>
            <text value="Land"/>
            <answer>
              <valueString value="Schweiz"/>
            </answer>
          </item>
        </item>
        <item>
          <linkId value="sender"/>
          <text value="Absender"/>
          <item>
            <linkId value="sender.author"/>
            <text value="Verantwortlicher"/>
            <item>
              <linkId value="sender.author.practitioner"/>
              <text value="Verantwortliche Person"/>
              <item>
                <linkId value="sender.author.practitioner.title"/>
                <text value="Titel"/>
                <answer>
                  <valueString value="Dr. med."/>
                </answer>
              </item>
              <item>
                <linkId value="sender.author.practitioner.familyName"/>
                <text value="Name"/>
                <answer>
                  <valueString value="Lacer"/>
                </answer>
              </item>
              <item>
                <linkId value="sender.author.practitioner.givenName"/>
                <text value="Vorname"/>
                <answer>
                  <valueString value="Paul"/>
                </answer>
              </item>
              <item>
                <linkId value="sender.author.practitioner.gln"/>
                <text value="GLN"/>
                <answer>
                  <valueString value="7601000050717"/>
                </answer>
              </item>
              <item>
                <linkId value="sender.author.practitioner.phone"/>
                <text value="Telefon"/>
                <answer>
                  <valueString value="044 987 65 43"/>
                </answer>
              </item>
              <item>
                <linkId value="sender.author.practitioner.email"/>
                <text value="E-Mail"/>
                <answer>
                  <valueString value="p.lacer@regionalhospital.ch"/>
                </answer>
              </item>
            </item>
            <item>
              <linkId value="sender.author.organization"/>
              <text value="Verantwortliche Organisation"/>
              <item>
                <linkId value="sender.author.organization.name"/>
                <text value="Name der Organisation"/>
                <answer>
                  <valueString value="Regional Hospital"/>
                </answer>
              </item>
              <item>
                <linkId value="sender.author.organization.streetAddressLine"/>
                <text value="Strasse, Hausnummer, Postfach etc."/>
                <answer>
                  <valueString value="Musterstrasse 129"/>
                </answer>
              </item>
              <item>
                <linkId value="sender.author.organization.postalCode"/>
                <text value="PLZ"/>
                <answer>
                  <valueString value="8000"/>
                </answer>
              </item>
              <item>
                <linkId value="sender.author.organization.city"/>
                <text value="Ort"/>
                <answer>
                  <valueString value="Zürich"/>
                </answer>
              </item>
              <item>
                <linkId value="sender.author.organization.country"/>
                <text value="Land"/>
                <answer>
                  <valueString value="Schweiz"/>
                </answer>
              </item>
            </item>
          </item>
        </item>
      </QuestionnaireResponse>
    </resource>
  </entry>
  <entry>
    <fullUrl value="urn:uuid:4d15b80e-8813-47b1-9fd2-5fbb96b87e7a"/>
    <resource>
      <ServiceRequest>
        <language value="de-CH"/>
        <identifier>
          <type>
            <coding>
              <system value="http://terminology.hl7.org/CodeSystem/v2-0203"/>
              <code value="PLAC"/>
            </coding>
          </type>
          <system value="urn:oid:2.999.66.77.88"/>
          <value value="60823"/>
        </identifier>
        <status value="active"/>
        <intent value="order"/>
        <priority value="stat"/>
        <subject>
          <reference value="urn:uuid:3a12ef44-6acd-4736-924c-cd60b311da50"/>
        </subject>
        <requester>
          <reference value="urn:uuid:aa73b56c-7bf7-4465-8388-be59f5c35b91"/>
        </requester>
      </ServiceRequest>
    </resource>
  </entry>
  <entry>
    <fullUrl value="http://fhir.ch/ig/ch-orf/Questionnaire/order-referral-form"/>
    <resource>
      <Questionnaire>
        <id value="order-referral-form"/>
        <meta>
          <versionId value="42"/>
          <lastUpdated value="2023-06-12T21:11:39.305+00:00"/>
          <source value="#dQEVCLkxu8TKSXYI"/>
          <profile value="http://fhir.ch/ig/ch-orf/StructureDefinition/ch-orf-questionnaire"/>
          <profile value="http://hl7.org/fhir/uv/sdc/StructureDefinition/sdc-questionnaire"/>
          <profile value="http://hl7.org/fhir/uv/sdc/StructureDefinition/sdc-questionnaire-extr-smap"/>
          <profile value="http://hl7.org/fhir/uv/sdc/StructureDefinition/sdc-questionnaire-pop-exp"/>
        </meta>
        <language value="de-CH"/>
        <extension url="http://hl7.org/fhir/uv/sdc/StructureDefinition/sdc-questionnaire-targetStructureMap">
          <valueCanonical value="http://fhir.ch/ig/ch-orf/StructureMap/OrfQrToBundle"/>
        </extension>
        <extension url="http://hl7.org/fhir/uv/sdc/StructureDefinition/sdc-questionnaire-launchContext">
          <extension url="name">
            <valueCoding>
              <system value="http://hl7.org/fhir/uv/sdc/CodeSystem/launchContext"/>
              <code value="patient"/>
            </valueCoding>
          </extension>
          <extension url="type">
            <valueCode value="Patient"/>
          </extension>
        </extension>
        <extension url="http://hl7.org/fhir/uv/sdc/StructureDefinition/sdc-questionnaire-launchContext">
          <extension url="name">
            <valueCoding>
              <system value="http://hl7.org/fhir/uv/sdc/CodeSystem/launchContext"/>
              <code value="user"/>
              <display value="User"/>
            </valueCoding>
          </extension>
          <extension url="type">
            <valueCode value="Practitioner"/>
          </extension>
          <extension url="description">
            <valueString value="The practitioner that is to be used to pre-populate the form"/>
          </extension>
        </extension>
        <extension url="http://hl7.org/fhir/uv/sdc/StructureDefinition/sdc-questionnaire-assembledFrom">
          <valueCanonical value="http://fhir.ch/ig/ch-orf/Questionnaire/ch-orf-module-order|1.1.0"/>
        </extension>
        <extension url="http://hl7.org/fhir/uv/sdc/StructureDefinition/sdc-questionnaire-assembledFrom">
          <valueCanonical value="http://fhir.ch/ig/ch-orf/Questionnaire/ch-orf-module-practitioner-nametel|1.1.0"/>
        </extension>
        <extension url="http://hl7.org/fhir/uv/sdc/StructureDefinition/sdc-questionnaire-assembledFrom">
          <valueCanonical value="http://fhir.ch/ig/ch-orf/Questionnaire/ch-orf-module-receiver|1.1.0"/>
        </extension>
        <extension url="http://hl7.org/fhir/uv/sdc/StructureDefinition/sdc-questionnaire-assembledFrom">
          <valueCanonical value="http://fhir.ch/ig/ch-orf/Questionnaire/ch-orf-module-address|1.1.0"/>
        </extension>
        <extension url="http://hl7.org/fhir/uv/sdc/StructureDefinition/sdc-questionnaire-assembledFrom">
          <valueCanonical value="http://fhir.ch/ig/ch-orf/Questionnaire/ch-orf-module-initiator|1.1.0"/>
        </extension>
        <extension url="http://hl7.org/fhir/uv/sdc/StructureDefinition/sdc-questionnaire-assembledFrom">
          <valueCanonical value="http://fhir.ch/ig/ch-orf/Questionnaire/ch-orf-module-patient|1.1.0"/>
        </extension>
        <extension url="http://hl7.org/fhir/uv/sdc/StructureDefinition/sdc-questionnaire-assembledFrom">
          <valueCanonical value="http://fhir.ch/ig/ch-orf/Questionnaire/ch-orf-module-familydoctor|1.1.0"/>
        </extension>
        <extension url="http://hl7.org/fhir/uv/sdc/StructureDefinition/sdc-questionnaire-assembledFrom">
          <valueCanonical value="http://fhir.ch/ig/ch-orf/Questionnaire/ch-orf-module-requestedencounter|1.1.0"/>
        </extension>
        <extension url="http://hl7.org/fhir/uv/sdc/StructureDefinition/sdc-questionnaire-assembledFrom">
          <valueCanonical value="http://fhir.ch/ig/ch-orf/Questionnaire/ch-orf-module-coverage|1.1.0"/>
        </extension>
        <extension url="http://hl7.org/fhir/uv/sdc/StructureDefinition/sdc-questionnaire-assembledFrom">
          <valueCanonical value="http://fhir.ch/ig/ch-orf/Questionnaire/ch-orf-module-sender|1.1.0"/>
        </extension>
        <extension url="http://hl7.org/fhir/uv/sdc/StructureDefinition/sdc-questionnaire-assembledFrom">
          <valueCanonical value="http://fhir.ch/ig/ch-orf/Questionnaire/ch-orf-module-receivercopy|1.1.0"/>
        </extension>
        <extension url="http://hl7.org/fhir/uv/sdc/StructureDefinition/sdc-questionnaire-assembledFrom">
          <valueCanonical value="http://fhir.ch/ig/ch-orf/Questionnaire/ch-orf-module-appointment|1.1.0"/>
        </extension>
        <extension url="http://hl7.org/fhir/uv/sdc/StructureDefinition/sdc-questionnaire-assembledFrom">
          <valueCanonical value="http://fhir.ch/ig/ch-orf/Questionnaire/ch-orf-module-consent|1.1.0"/>
        </extension>
        <url value="http://fhir.ch/ig/ch-orf/Questionnaire/order-referral-form"/>
        <version value="1.1.0-assembled"/>
        <name value="OrderReferralForm"/>
        <title value="Order Referral Form"/>
        <status value="active"/>
        <subjectType value="Patient"/>
        <date value="2022-07-07"/>
        <publisher value="HL7 Switzerland"/>
        <contact>
          <name value="HL7 Switzerland"/>
          <telecom>
            <system value="url"/>
            <value value="https://www.hl7.ch/"/>
          </telecom>
        </contact>
        <jurisdiction>
          <coding>
            <system value="urn:iso:std:iso:3166"/>
            <code value="CH"/>
          </coding>
        </jurisdiction>
        <copyright value="CC-BY-SA-4.0"/>
        <item>
          <linkId value="order"/>
          <text value="Auftrag"/>
          <type value="group"/>
          <required value="true"/>
          <item>
            <linkId value="order.authoredOn"/>
            
            <text value="Daum/Zeit der Auftragserteilung"/>
            <type value="dateTime"/>
          </item>
          <item>
            <linkId value="order.placerOrderIdentifier"/>
            
            <text value="Auftragsnummer des Auftraggebers"/>
            <type value="string"/>
          </item>
          <item>
            <extension url="http://hl7.org/fhir/StructureDefinition/questionnaire-hidden">
              <valueBoolean value="true"/>
            </extension>
            <linkId value="order.placerOrderIdentifierDomain"/>
            
            <text value="Identifier Domain der Auftragsnummer des Auftraggebers"/>
            <type value="string"/>
          </item>
          <item>
            <linkId value="order.fillerOrderIdentifier"/>
            
            <text value="Auftragsnummer des Auftragsempfängers"/>
            <type value="string"/>
          </item>
          <item>
            <extension url="http://hl7.org/fhir/StructureDefinition/questionnaire-hidden">
              <valueBoolean value="true"/>
            </extension>
            <linkId value="order.fillerOrderIdentifierDomain"/>
            
            <text value="Identifier Domain der Auftragsnummer des Auftragsempfängers"/>
            <type value="string"/>
          </item>
          <item>
            <extension url="http://hl7.org/fhir/StructureDefinition/questionnaire-hidden">
              <valueBoolean value="true"/>
            </extension>
            <linkId value="order.precedentDocumentIdentifier"/>
            
            <text value="Identifier des Vorgängerdokuments"/>
            <type value="string"/>
          </item>
          <item>
            <linkId value="order.notificationContactDocument"/>
            
            <text value="Dringender Benachrichtigungskontakt für dieses Dokument"/>
            <type value="group"/>
            <item>
              <extension url="http://hl7.org/fhir/StructureDefinition/variable">
                <valueExpression>
                  <name value="linkIdPrefix"/>
                  <language value="text/fhirpath"/>
                  <expression value="'order.notificationContactDocument.practitioner.'"/>
                </valueExpression>
              </extension>
              <linkId value="order.notificationContactDocument.practitioner"/>
              
              <text value="Zu benachrichtigende Person"/>
              <type value="group"/>
              <item>
                <linkId value="order.notificationContactDocument.practitioner.title"/>
                
                <text value="Titel"/>
                <type value="string"/>
              </item>
              <item>
                <linkId value="order.notificationContactDocument.practitioner.familyName"/>
                
                <text value="Name"/>
                <type value="string"/>
              </item>
              <item>
                <linkId value="order.notificationContactDocument.practitioner.givenName"/>
                
                <text value="Vorname"/>
                <type value="string"/>
              </item>
              <item>
                <linkId value="order.notificationContactDocument.practitioner.phone"/>
                
                <text value="Telefon"/>
                <type value="string"/>
              </item>
              <item>
                <linkId value="order.notificationContactDocument.practitioner.email"/>
                
                <text value="E-Mail"/>
                <type value="string"/>
              </item>
            </item>
          </item>
          <item>
            <linkId value="order.notificationContactDocumentResponse"/>
            
            <text value="Dringender Benachrichtigungskontakt für die Antwort auf dieses Dokument"/>
            <type value="group"/>
            <item>
              <extension url="http://hl7.org/fhir/StructureDefinition/variable">
                <valueExpression>
                  <name value="linkIdPrefix"/>
                  <language value="text/fhirpath"/>
                  <expression value="'order.notificationContactDocumentResponse.practitioner.'"/>
                </valueExpression>
              </extension>
              <linkId value="order.notificationContactDocumentResponse.practitioner"/>
              
              <text value="Zu benachrichtigende Person"/>
              <type value="group"/>
              <item>
                <linkId value="order.notificationContactDocumentResponse.practitioner.title"/>
                
                <text value="Titel"/>
                <type value="string"/>
              </item>
              <item>
                <linkId value="order.notificationContactDocumentResponse.practitioner.familyName"/>
                
                <text value="Name"/>
                <type value="string"/>
              </item>
              <item>
                <linkId value="order.notificationContactDocumentResponse.practitioner.givenName"/>
                
                <text value="Vorname"/>
                <type value="string"/>
              </item>
              <item>
                <linkId value="order.notificationContactDocumentResponse.practitioner.phone"/>
                
                <text value="Telefon"/>
                <type value="string"/>
              </item>
              <item>
                <linkId value="order.notificationContactDocumentResponse.practitioner.email"/>
                
                <text value="E-Mail"/>
                <type value="string"/>
              </item>
            </item>
          </item>
          <item>
            <linkId value="order.priority"/>
            
            <text value="Auftragspriorität"/>
            <type value="choice"/>
            <answerOption>
              <valueCoding>
                <system value="http://hl7.org/fhir/request-priority"/>
                <code value="routine"/>
                <display value="Die Anfrage hat normale Priorität."/>
              </valueCoding>
              <initialSelected value="true"/>
            </answerOption>
            <answerOption>
              <valueCoding>
                <system value="http://hl7.org/fhir/request-priority"/>
                <code value="urgent"/>
                <display value="Die Anfrage sollte dringend bearbeitet werden - höhere Priorität als normal."/>
              </valueCoding>
            </answerOption>
            <answerOption>
              <valueCoding>
                <system value="http://hl7.org/fhir/request-priority"/>
                <code value="asap"/>
                <display value="Die Anfrage sollte so schnell wie möglich bearbeitet werden - höhere Priorität als dringend."/>
              </valueCoding>
            </answerOption>
            <answerOption>
              <valueCoding>
                <system value="http://hl7.org/fhir/request-priority"/>
                <code value="stat"/>
                <display value="Die Anfrage sollte sofort bearbeitet werden - höchstmögliche Priorität. Z.B. bei einem Notfall."/>
              </valueCoding>
            </answerOption>
          </item>
        </item>
        <item>
          <linkId value="receiver"/>
          
          <text value="Empfänger"/>
          <type value="group"/>
          <item>
            <linkId value="receiver.practitioner"/>
            
            <text value="Empfangende Person"/>
            <type value="group"/>
            <item>
              <linkId value="receiver.practitioner.title"/>
              
              <text value="Titel"/>
              <type value="string"/>
            </item>
            <item>
              <linkId value="receiver.practitioner.familyName"/>
              
              <text value="Name"/>
              <type value="string"/>
            </item>
            <item>
              <linkId value="receiver.practitioner.givenName"/>
              
              <text value="Vorname"/>
              <type value="string"/>
            </item>
            <item>
              <linkId value="receiver.practitioner.gln"/>
              
              <text value="GLN"/>
              <type value="string"/>
            </item>
            <item>
              <linkId value="receiver.practitioner.zsr"/>
              
              <text value="ZSR"/>
              <type value="string"/>
            </item>
            <item>
              <linkId value="receiver.practitioner.phone"/>
              
              <text value="Telefon"/>
              <type value="string"/>
            </item>
            <item>
              <linkId value="receiver.practitioner.email"/>
              
              <text value="E-Mail"/>
              <type value="string"/>
            </item>
          </item>
          <item>
            <extension url="http://hl7.org/fhir/StructureDefinition/variable">
              <valueExpression>
                <name value="linkIdPrefix"/>
                <language value="text/fhirpath"/>
                <expression value="'receiver.organization.'"/>
              </valueExpression>
            </extension>
            <linkId value="receiver.organization"/>
            
            <text value="Empfangende Organisation"/>
            <type value="group"/>
            <item>
              <linkId value="receiver.organization.name"/>
              
              <text value="Name der Organisation"/>
              <type value="string"/>
            </item>
            <item>
              <linkId value="receiver.organization.gln"/>
              
              <text value="GLN"/>
              <type value="string"/>
            </item>
            <item>
              <extension url="http://hl7.org/fhir/uv/sdc/StructureDefinition/sdc-questionnaire-initialExpression">
                <valueExpression>
                  <language value="text/fhirpath"/>
                  <expression value="%address.line"/>
                </valueExpression>
              </extension>
              <linkId value="receiver.organization.streetAddressLine"/>
              <text value="Strasse, Hausnummer, Postfach etc."/>
              <type value="string"/>
              <repeats value="true"/>
            </item>
            <item>
              <extension url="http://hl7.org/fhir/uv/sdc/StructureDefinition/sdc-questionnaire-initialExpression">
                <valueExpression>
                  <language value="text/fhirpath"/>
                  <expression value="%address.postalCode"/>
                </valueExpression>
              </extension>
              <linkId value="receiver.organization.postalCode"/>
              <text value="PLZ"/>
              <type value="string"/>
            </item>
            <item>
              <extension url="http://hl7.org/fhir/uv/sdc/StructureDefinition/sdc-questionnaire-initialExpression">
                <valueExpression>
                  <language value="text/fhirpath"/>
                  <expression value="%address.city"/>
                </valueExpression>
              </extension>
              <linkId value="receiver.organization.city"/>
              <text value="Ort"/>
              <type value="string"/>
            </item>
            <item>
              <extension url="http://hl7.org/fhir/uv/sdc/StructureDefinition/sdc-questionnaire-initialExpression">
                <valueExpression>
                  <language value="text/fhirpath"/>
                  <expression value="%address.country"/>
                </valueExpression>
              </extension>
              <linkId value="receiver.organization.country"/>
              <text value="Land"/>
              <type value="string"/>
            </item>
          </item>
        </item>
        <item>
          <linkId value="initiator"/>
          
          <text value="Initiant dieser Anmeldung"/>
          <type value="group"/>
          <item>
            <linkId value="initiator.legalrelation"/>
            
            <text value="Juristische Beziehung zum Patienten"/>
            <type value="choice"/>
            <answerOption>
              <valueCoding>
                <system value="http://snomed.info/sct"/>
                <code value="373068000"/>
                <display value="Nicht definiert"/>
              </valueCoding>
            </answerOption>
            <answerOption>
              <valueCoding>
                <system value="http://snomed.info/sct"/>
                <code value="58626002"/>
                <display value="Gesetzlicher Vertreter"/>
              </valueCoding>
            </answerOption>
          </item>
          <item>
            <linkId value="initiator.personalrelation"/>
            
            <text value="Persönliche Beziehung zum Patienten?"/>
            <type value="choice"/>
            <answerOption>
              <valueCoding>
                <system value="http://snomed.info/sct"/>
                <code value="66089001"/>
                <display value="Tochter"/>
              </valueCoding>
            </answerOption>
            <answerOption>
              <valueCoding>
                <system value="http://snomed.info/sct"/>
                <code value="65616008"/>
                <display value="Sohn"/>
              </valueCoding>
            </answerOption>
            <answerOption>
              <valueCoding>
                <system value="http://snomed.info/sct"/>
                <code value="127849001"/>
                <display value="Ehemann"/>
              </valueCoding>
            </answerOption>
            <answerOption>
              <valueCoding>
                <system value="http://snomed.info/sct"/>
                <code value="127850001"/>
                <display value="Ehefrau"/>
              </valueCoding>
            </answerOption>
            <answerOption>
              <valueCoding>
                <system value="http://snomed.info/sct"/>
                <code value="394921008"/>
                <display value="Partner (eingetragene  Partnerschaft)"/>
              </valueCoding>
            </answerOption>
            <answerOption>
              <valueCoding>
                <system value="http://snomed.info/sct"/>
                <code value="70924004"/>
                <display value="Bruder"/>
              </valueCoding>
            </answerOption>
            <answerOption>
              <valueCoding>
                <system value="http://snomed.info/sct"/>
                <code value="27733009"/>
                <display value="Schwester"/>
              </valueCoding>
            </answerOption>
            <answerOption>
              <valueCoding>
                <system value="http://snomed.info/sct"/>
                <code value="72705000"/>
                <display value="Mutter"/>
              </valueCoding>
            </answerOption>
            <answerOption>
              <valueCoding>
                <system value="http://snomed.info/sct"/>
                <code value="66839005"/>
                <display value="Vater"/>
              </valueCoding>
            </answerOption>
            <answerOption>
              <valueCoding>
                <system value="http://snomed.info/sct"/>
                <code value="48385004"/>
                <display value="Bekannt"/>
              </valueCoding>
            </answerOption>
          </item>
          <item>
            <linkId value="initiator.practitionerRole"/>
            
            <text value="Gesundheitsfachperson oder -organisation"/>
            <type value="group"/>
            <item>
              <extension url="http://hl7.org/fhir/StructureDefinition/variable">
                <valueExpression>
                  <name value="linkIdPrefix"/>
                  <language value="text/fhirpath"/>
                  <expression value="'initiator.practitionerRole.practitioner.'"/>
                </valueExpression>
              </extension>
              <linkId value="initiator.practitionerRole.practitioner"/>
              
              <text value="Gesundheitsfachperson"/>
              <type value="group"/>
              <item>
                <linkId value="initiator.practitionerRole.practitioner.title"/>
                
                <text value="Titel"/>
                <type value="string"/>
              </item>
              <item>
                <linkId value="initiator.practitionerRole.practitioner.familyName"/>
                
                <text value="Name"/>
                <type value="string"/>
              </item>
              <item>
                <linkId value="initiator.practitionerRole.practitioner.givenName"/>
                
                <text value="Vorname"/>
                <type value="string"/>
              </item>
              <item>
                <linkId value="initiator.practitionerRole.practitioner.phone"/>
                
                <text value="Telefon"/>
                <type value="string"/>
              </item>
              <item>
                <linkId value="initiator.practitionerRole.practitioner.email"/>
                
                <text value="E-Mail"/>
                <type value="string"/>
              </item>
            </item>
            <item>
              <extension url="http://hl7.org/fhir/StructureDefinition/variable">
                <valueExpression>
                  <name value="linkIdPrefix"/>
                  <language value="text/fhirpath"/>
                  <expression value="'initiator.practitionerRole.organization.'"/>
                </valueExpression>
              </extension>
              <linkId value="initiator.practitionerRole.organization"/>
              
              <text value="Gesundheitsorganisatiton"/>
              <type value="group"/>
              <item>
                <linkId value="initiator.practitionerRole.organization.name"/>
                
                <text value="Name der Organisation"/>
                <type value="string"/>
              </item>
              <item>
                <extension url="http://hl7.org/fhir/uv/sdc/StructureDefinition/sdc-questionnaire-initialExpression">
                  <valueExpression>
                    <language value="text/fhirpath"/>
                    <expression value="%address.line"/>
                  </valueExpression>
                </extension>
                <linkId value="initiator.practitionerRole.organization.streetAddressLine"/>
                <text value="Strasse, Hausnummer, Postfach etc."/>
                <type value="string"/>
                <repeats value="true"/>
              </item>
              <item>
                <extension url="http://hl7.org/fhir/uv/sdc/StructureDefinition/sdc-questionnaire-initialExpression">
                  <valueExpression>
                    <language value="text/fhirpath"/>
                    <expression value="%address.postalCode"/>
                  </valueExpression>
                </extension>
                <linkId value="initiator.practitionerRole.organization.postalCode"/>
                <text value="PLZ"/>
                <type value="string"/>
              </item>
              <item>
                <extension url="http://hl7.org/fhir/uv/sdc/StructureDefinition/sdc-questionnaire-initialExpression">
                  <valueExpression>
                    <language value="text/fhirpath"/>
                    <expression value="%address.city"/>
                  </valueExpression>
                </extension>
                <linkId value="initiator.practitionerRole.organization.city"/>
                <text value="Ort"/>
                <type value="string"/>
              </item>
              <item>
                <extension url="http://hl7.org/fhir/uv/sdc/StructureDefinition/sdc-questionnaire-initialExpression">
                  <valueExpression>
                    <language value="text/fhirpath"/>
                    <expression value="%address.country"/>
                  </valueExpression>
                </extension>
                <linkId value="initiator.practitionerRole.organization.country"/>
                <text value="Land"/>
                <type value="string"/>
              </item>
            </item>
          </item>
          <item>
            <linkId value="initiator.relatedPerson"/>
            
            <text value="Andere Person"/>
            <type value="group"/>
            <item>
              <extension url="http://hl7.org/fhir/StructureDefinition/variable">
                <valueExpression>
                  <name value="linkIdPrefix"/>
                  <language value="text/fhirpath"/>
                  <expression value="'initiator.relatedPerson.'"/>
                </valueExpression>
              </extension>
              <linkId value="initiator.relatedPerson.familyName"/>
              
              <text value="Name"/>
              <type value="string"/>
            </item>
            <item>
              <linkId value="initiator.relatedPerson.givenName"/>
              
              <text value="Vorname"/>
              <type value="string"/>
            </item>
            <item>
              <linkId value="initiator.relatedPerson.phone"/>
              
              <text value="Telefon"/>
              <type value="string"/>
              <repeats value="true"/>
            </item>
            <item>
              <linkId value="initiator.relatedPerson.email"/>
              
              <text value="E-Mail"/>
              <type value="string"/>
            </item>
            <item>
              <extension url="http://hl7.org/fhir/uv/sdc/StructureDefinition/sdc-questionnaire-initialExpression">
                <valueExpression>
                  <language value="text/fhirpath"/>
                  <expression value="%address.line"/>
                </valueExpression>
              </extension>
              <linkId value="initiator.relatedPerson.streetAddressLine"/>
              <text value="Strasse, Hausnummer, Postfach etc."/>
              <type value="string"/>
              <repeats value="true"/>
            </item>
            <item>
              <extension url="http://hl7.org/fhir/uv/sdc/StructureDefinition/sdc-questionnaire-initialExpression">
                <valueExpression>
                  <language value="text/fhirpath"/>
                  <expression value="%address.postalCode"/>
                </valueExpression>
              </extension>
              <linkId value="initiator.relatedPerson.postalCode"/>
              <text value="PLZ"/>
              <type value="string"/>
            </item>
            <item>
              <extension url="http://hl7.org/fhir/uv/sdc/StructureDefinition/sdc-questionnaire-initialExpression">
                <valueExpression>
                  <language value="text/fhirpath"/>
                  <expression value="%address.city"/>
                </valueExpression>
              </extension>
              <linkId value="initiator.relatedPerson.city"/>
              <text value="Ort"/>
              <type value="string"/>
            </item>
            <item>
              <extension url="http://hl7.org/fhir/uv/sdc/StructureDefinition/sdc-questionnaire-initialExpression">
                <valueExpression>
                  <language value="text/fhirpath"/>
                  <expression value="%address.country"/>
                </valueExpression>
              </extension>
              <linkId value="initiator.relatedPerson.country"/>
              <text value="Land"/>
              <type value="string"/>
            </item>
          </item>
        </item>
        <item>
          <extension url="http://hl7.org/fhir/StructureDefinition/variable">
            <valueExpression>
              <name value="linkIdPrefix"/>
              <language value="text/fhirpath"/>
              <expression value="'patient.'"/>
            </valueExpression>
          </extension>
          <extension url="http://hl7.org/fhir/StructureDefinition/variable">
            <valueExpression>
              <name value="address"/>
              <language value="text/fhirpath"/>
              <expression value="%patient.address"/>
            </valueExpression>
          </extension>
          <linkId value="patient"/>
          
          <text value="Patient"/>
          <type value="group"/>
          <required value="true"/>
          <item>
            <extension url="http://hl7.org/fhir/uv/sdc/StructureDefinition/sdc-questionnaire-initialExpression">
              <valueExpression>
                <language value="text/fhirpath"/>
                <expression value="%patient.name.where(use='official').family"/>
              </valueExpression>
            </extension>
            <linkId value="patient.familyName"/>
            
            <text value="Name"/>
            <type value="string"/>
          </item>
          <item>
            <extension url="http://hl7.org/fhir/uv/sdc/StructureDefinition/sdc-questionnaire-initialExpression">
              <valueExpression>
                <language value="text/fhirpath"/>
                <expression value="%patient.name.where(use='maiden').family"/>
              </valueExpression>
            </extension>
            <linkId value="patient.maidenName"/>
            
            <text value="Ledigname"/>
            <type value="string"/>
          </item>
          <item>
            <extension url="http://hl7.org/fhir/uv/sdc/StructureDefinition/sdc-questionnaire-initialExpression">
              <valueExpression>
                <language value="text/fhirpath"/>
                <expression value="%patient.name.where(use='official').given"/>
              </valueExpression>
            </extension>
            <linkId value="patient.givenName"/>
            
            <text value="Vorname"/>
            <type value="string"/>
          </item>
          <item>
            <extension url="http://hl7.org/fhir/uv/sdc/StructureDefinition/sdc-questionnaire-initialExpression">
              <valueExpression>
                <language value="text/fhirpath"/>
                <expression value="%patient.identifier.where(type.coding.where(system='http://terminology.hl7.org/CodeSystem/v2-0203' and code='MR').exists()).value"/>
              </valueExpression>
            </extension>
            <linkId value="patient.localPid"/>
            
            <text value="Lokale Patienten-ID"/>
            <type value="string"/>
          </item>
          <item>
            <extension url="http://hl7.org/fhir/StructureDefinition/questionnaire-hidden">
              <valueBoolean value="true"/>
            </extension>
            <linkId value="patient.localPidDomain"/>
            
            <text value="Lokale Patienten-ID Domain"/>
            <type value="string"/>
          </item>
          <item>
            <extension url="http://hl7.org/fhir/uv/sdc/StructureDefinition/sdc-questionnaire-initialExpression">
              <valueExpression>
                <language value="text/fhirpath"/>
                <expression value="%patient.birthDate"/>
              </valueExpression>
            </extension>
            <linkId value="patient.birthDate"/>
            
            <text value="Geburtsdatum"/>
            <type value="date"/>
          </item>
          <item>
            <extension url="http://hl7.org/fhir/uv/sdc/StructureDefinition/sdc-questionnaire-initialExpression">
              <valueExpression>
                <language value="text/fhirpath"/>
                <expression value="%questionnaire.repeat(item).where(linkId='patient.gender').answerOption.valueCoding.where(code=%patient.gender)"/>
              </valueExpression>
            </extension>
            <linkId value="patient.gender"/>
            
            <text value="Geschlecht"/>
            <type value="choice"/>
            <answerOption>
              <valueCoding>
                <system value="http://hl7.org/fhir/administrative-gender"/>
                <code value="male"/>
                <display value="Männlich"/>
              </valueCoding>
              <initialSelected value="true"/>
            </answerOption>
            <answerOption>
              <valueCoding>
                <system value="http://hl7.org/fhir/administrative-gender"/>
                <code value="female"/>
                <display value="Weiblich"/>
              </valueCoding>
            </answerOption>
            <answerOption>
              <valueCoding>
                <system value="http://hl7.org/fhir/administrative-gender"/>
                <code value="other"/>
                <display value="Anderes"/>
              </valueCoding>
            </answerOption>
          </item>
          <item>
            <extension url="http://hl7.org/fhir/uv/sdc/StructureDefinition/sdc-questionnaire-initialExpression">
              <valueExpression>
                <language value="text/fhirpath"/>
                <expression value="%patient.maritalStatus"/>
              </valueExpression>
            </extension>
            <linkId value="patient.maritalStatus"/>
            
            <text value="Zivilstand"/>
            <type value="choice"/>
            <answerOption>
              <valueCoding>
                <system value="http://fhir.ch/ig/ch-core/CodeSystem/ech-11-maritalstatus"/>
                <code value="1"/>
                <display value="ledig"/>
              </valueCoding>
            </answerOption>
            <answerOption>
              <valueCoding>
                <system value="http://fhir.ch/ig/ch-core/CodeSystem/ech-11-maritalstatus"/>
                <code value="2"/>
                <display value="verheiratet"/>
              </valueCoding>
            </answerOption>
            <answerOption>
              <valueCoding>
                <system value="http://fhir.ch/ig/ch-core/CodeSystem/ech-11-maritalstatus"/>
                <code value="3"/>
                <display value="verwitwet"/>
              </valueCoding>
            </answerOption>
            <answerOption>
              <valueCoding>
                <system value="http://fhir.ch/ig/ch-core/CodeSystem/ech-11-maritalstatus"/>
                <code value="4"/>
                <display value="geschieden"/>
              </valueCoding>
            </answerOption>
            <answerOption>
              <valueCoding>
                <system value="http://fhir.ch/ig/ch-core/CodeSystem/ech-11-maritalstatus"/>
                <code value="5"/>
                <display value="unverheiratet"/>
              </valueCoding>
            </answerOption>
            <answerOption>
              <valueCoding>
                <system value="http://fhir.ch/ig/ch-core/CodeSystem/ech-11-maritalstatus"/>
                <code value="6"/>
                <display value="in eingetragener Partnerschaft"/>
              </valueCoding>
            </answerOption>
            <answerOption>
              <valueCoding>
                <system value="http://fhir.ch/ig/ch-core/CodeSystem/ech-11-maritalstatus"/>
                <code value="7"/>
                <display value="aufgelöste Partnerschaft"/>
              </valueCoding>
            </answerOption>
            <answerOption>
              <valueCoding>
                <system value="http://fhir.ch/ig/ch-core/CodeSystem/ech-11-maritalstatus"/>
                <code value="9"/>
                <display value="unbekannt"/>
              </valueCoding>
            </answerOption>
          </item>
          <item>
            <extension url="http://hl7.org/fhir/uv/sdc/StructureDefinition/sdc-questionnaire-initialExpression">
              <valueExpression>
                <language value="text/fhirpath"/>
                <expression value="%patient.telecom.where(system='phone').value"/>
              </valueExpression>
            </extension>
            <linkId value="patient.phone"/>
            
            <text value="Telefon"/>
            <type value="string"/>
            <repeats value="true"/>
          </item>
          <item>
            <extension url="http://hl7.org/fhir/uv/sdc/StructureDefinition/sdc-questionnaire-initialExpression">
              <valueExpression>
                <language value="text/fhirpath"/>
                <expression value="%patient.telecom.where(system='email').value"/>
              </valueExpression>
            </extension>
            <linkId value="patient.email"/>
            
            <text value="E-Mail"/>
            <type value="string"/>
          </item>
          <item>
            <extension url="http://hl7.org/fhir/uv/sdc/StructureDefinition/sdc-questionnaire-initialExpression">
              <valueExpression>
                <language value="text/fhirpath"/>
                <expression value="%address.line"/>
              </valueExpression>
            </extension>
            <linkId value="patient.streetAddressLine"/>
            <text value="Strasse, Hausnummer, Postfach etc."/>
            <type value="string"/>
            <repeats value="true"/>
          </item>
          <item>
            <extension url="http://hl7.org/fhir/uv/sdc/StructureDefinition/sdc-questionnaire-initialExpression">
              <valueExpression>
                <language value="text/fhirpath"/>
                <expression value="%address.postalCode"/>
              </valueExpression>
            </extension>
            <linkId value="patient.postalCode"/>
            <text value="PLZ"/>
            <type value="string"/>
          </item>
          <item>
            <extension url="http://hl7.org/fhir/uv/sdc/StructureDefinition/sdc-questionnaire-initialExpression">
              <valueExpression>
                <language value="text/fhirpath"/>
                <expression value="%address.city"/>
              </valueExpression>
            </extension>
            <linkId value="patient.city"/>
            <text value="Ort"/>
            <type value="string"/>
          </item>
          <item>
            <extension url="http://hl7.org/fhir/uv/sdc/StructureDefinition/sdc-questionnaire-initialExpression">
              <valueExpression>
                <language value="text/fhirpath"/>
                <expression value="%address.country"/>
              </valueExpression>
            </extension>
            <linkId value="patient.country"/>
            <text value="Land"/>
            <type value="string"/>
          </item>
          <item>
            <extension url="http://hl7.org/fhir/uv/sdc/StructureDefinition/sdc-questionnaire-initialExpression">
              <valueExpression>
                <language value="text/fhirpath"/>
                <expression value="%patient.communication.where(preferred=true).language.coding"/>
              </valueExpression>
            </extension>
            <linkId value="patient.languageOfCorrespondence"/>
            
            <text value="Korrespondenzsprache"/>
            <type value="choice"/>
            <answerValueSet value="http://fhir.ch/ig/ch-epr-term/ValueSet/DocumentEntry.languageCode"/>
          </item>
          <item>
            <extension url="http://hl7.org/fhir/StructureDefinition/variable">
              <valueExpression>
                <name value="contact"/>
                <language value="text/fhirpath"/>
                <expression value="%patient.contact"/>
              </valueExpression>
            </extension>
            <linkId value="patient.contactperson"/>
            
            <text value="Kontaktperson"/>
            <type value="group"/>
            <repeats value="true"/>
            <item>
              <extension url="http://hl7.org/fhir/uv/sdc/StructureDefinition/sdc-questionnaire-initialExpression">
                <valueExpression>
                  <language value="text/fhirpath"/>
                  <expression value="%contact.relationship.text"/>
                </valueExpression>
              </extension>
              <linkId value="patient.contactperson.relationship"/>
              
              <text value="Beziehung"/>
              <type value="string"/>
            </item>
            <item>
              <extension url="http://hl7.org/fhir/uv/sdc/StructureDefinition/sdc-questionnaire-initialExpression">
                <valueExpression>
                  <language value="text/fhirpath"/>
                  <expression value="%contact.name.family"/>
                </valueExpression>
              </extension>
              <linkId value="patient.contactperson.familyName"/>
              
              <text value="Name"/>
              <type value="string"/>
            </item>
            <item>
              <extension url="http://hl7.org/fhir/uv/sdc/StructureDefinition/sdc-questionnaire-initialExpression">
                <valueExpression>
                  <language value="text/fhirpath"/>
                  <expression value="%contact.name.given"/>
                </valueExpression>
              </extension>
              <linkId value="patient.contactperson.givenName"/>
              
              <text value="Vorname"/>
              <type value="string"/>
            </item>
            <item>
              <extension url="http://hl7.org/fhir/uv/sdc/StructureDefinition/sdc-questionnaire-initialExpression">
                <valueExpression>
                  <language value="text/fhirpath"/>
                  <expression value="%contact.telecom.where(system='phone').value"/>
                </valueExpression>
              </extension>
              <linkId value="patient.contactperson.phone"/>
              
              <text value="Telefon"/>
              <type value="string"/>
              <repeats value="true"/>
            </item>
            <item>
              <extension url="http://hl7.org/fhir/uv/sdc/StructureDefinition/sdc-questionnaire-initialExpression">
                <valueExpression>
                  <language value="text/fhirpath"/>
                  <expression value="%contact.telecom.where(system='email').value"/>
                </valueExpression>
              </extension>
              <linkId value="patient.contactperson.email"/>
              
              <text value="E-Mail"/>
              <type value="string"/>
            </item>
          </item>
          <item>
            <linkId value="familydoctor"/>
            
            <text value="Hausarzt"/>
            <type value="group"/>
            <item>
              <linkId value="familydoctor.practitioner"/>
              
              <text value="Hausarzt Person"/>
              <type value="group"/>
              <item>
                <linkId value="familydoctor.practitioner.title"/>
                
                <text value="Titel"/>
                <type value="string"/>
              </item>
              <item>
                <linkId value="familydoctor.practitioner.familyName"/>
                
                <text value="Name"/>
                <type value="string"/>
              </item>
              <item>
                <linkId value="familydoctor.practitioner.givenName"/>
                
                <text value="Vorname"/>
                <type value="string"/>
              </item>
              <item>
                <linkId value="familydoctor.practitioner.gln"/>
                
                <text value="GLN"/>
                <type value="string"/>
              </item>
              <item>
                <linkId value="familydoctor.practitioner.zsr"/>
                
                <text value="ZSR"/>
                <type value="string"/>
              </item>
              <item>
                <linkId value="familydoctor.practitioner.phone"/>
                
                <text value="Telefon"/>
                <type value="string"/>
              </item>
              <item>
                <linkId value="familydoctor.practitioner.email"/>
                
                <text value="E-Mail"/>
                <type value="string"/>
              </item>
            </item>
            <item>
              <extension url="http://hl7.org/fhir/StructureDefinition/variable">
                <valueExpression>
                  <name value="linkIdPrefix"/>
                  <language value="text/fhirpath"/>
                  <expression value="'familydoctor.organization.'"/>
                </valueExpression>
              </extension>
              <linkId value="familydoctor.organization"/>
              
              <text value="Hausarzt Organisation"/>
              <type value="group"/>
              <item>
                <linkId value="familydoctor.organization.name"/>
                
                <text value="Name der Organisation"/>
                <type value="string"/>
              </item>
              <item>
                <linkId value="familydoctor.organization.gln"/>
                
                <text value="GLN"/>
                <type value="string"/>
              </item>
              <item>
                <extension url="http://hl7.org/fhir/uv/sdc/StructureDefinition/sdc-questionnaire-initialExpression">
                  <valueExpression>
                    <language value="text/fhirpath"/>
                    <expression value="%address.line"/>
                  </valueExpression>
                </extension>
                <linkId value="familydoctor.organization.streetAddressLine"/>
                <text value="Strasse, Hausnummer, Postfach etc."/>
                <type value="string"/>
                <repeats value="true"/>
              </item>
              <item>
                <extension url="http://hl7.org/fhir/uv/sdc/StructureDefinition/sdc-questionnaire-initialExpression">
                  <valueExpression>
                    <language value="text/fhirpath"/>
                    <expression value="%address.postalCode"/>
                  </valueExpression>
                </extension>
                <linkId value="familydoctor.organization.postalCode"/>
                <text value="PLZ"/>
                <type value="string"/>
              </item>
              <item>
                <extension url="http://hl7.org/fhir/uv/sdc/StructureDefinition/sdc-questionnaire-initialExpression">
                  <valueExpression>
                    <language value="text/fhirpath"/>
                    <expression value="%address.city"/>
                  </valueExpression>
                </extension>
                <linkId value="familydoctor.organization.city"/>
                <text value="Ort"/>
                <type value="string"/>
              </item>
              <item>
                <extension url="http://hl7.org/fhir/uv/sdc/StructureDefinition/sdc-questionnaire-initialExpression">
                  <valueExpression>
                    <language value="text/fhirpath"/>
                    <expression value="%address.country"/>
                  </valueExpression>
                </extension>
                <linkId value="familydoctor.organization.country"/>
                <text value="Land"/>
                <type value="string"/>
              </item>
            </item>
          </item>
        </item>
        <item>
          <linkId value="requestedEncounter"/>
          
          <text value="Patientenaufnahme"/>
          <type value="group"/>
          <item>
            <linkId value="requestedEncounter.class"/>
            
            <text value="Voraussichtlich: Ambulant / Stationär / Notfall"/>
            <type value="choice"/>
            <answerOption>
              <valueCoding>
                <system value="http://terminology.hl7.org/CodeSystem/v3-ActCode"/>
                <code value="AMB"/>
                <display value="Ambulant"/>
              </valueCoding>
            </answerOption>
            <answerOption>
              <valueCoding>
                <system value="http://terminology.hl7.org/CodeSystem/v3-ActCode"/>
                <code value="IMP"/>
                <display value="Stationär"/>
              </valueCoding>
            </answerOption>
            <answerOption>
              <valueCoding>
                <system value="http://terminology.hl7.org/CodeSystem/v3-ActCode"/>
                <code value="EMER"/>
                <display value="Notfall"/>
              </valueCoding>
            </answerOption>
          </item>
          <item>
            <linkId value="requestedEncounter.desiredAccommodation"/>
            
            <text value="Zimmerkategorie"/>
            <type value="choice"/>
            <answerOption>
              <valueCoding>
                <system value="http://fhir.ch/ig/ch-core/CodeSystem/bfs-medstats-21-encountertype"/>
                <code value="1"/>
                <display value="allgemein"/>
              </valueCoding>
            </answerOption>
            <answerOption>
              <valueCoding>
                <system value="http://fhir.ch/ig/ch-core/CodeSystem/bfs-medstats-21-encountertype"/>
                <code value="2"/>
                <display value="halbprivat"/>
              </valueCoding>
            </answerOption>
            <answerOption>
              <valueCoding>
                <system value="http://fhir.ch/ig/ch-core/CodeSystem/bfs-medstats-21-encountertype"/>
                <code value="3"/>
                <display value="privat"/>
              </valueCoding>
            </answerOption>
          </item>
        </item>
        <item>
          <linkId value="coverage"/>
          
          <text value="Kostenträger"/>
          <type value="group"/>
          <item>
            <linkId value="coverage.beneficiary"/>
            
            <text value="Begünstigter (Patient)"/>
            <type value="group"/>
            <item>
              <linkId value="coverage.beneficiary.ahvn13"/>
              
              <text value="AHV-Nr. des Patienten"/>
              <type value="string"/>
            </item>
          </item>
          <item>
            <linkId value="coverage.kvg"/>
            
            <text value="Krankenkasse (nach KVG)"/>
            <type value="group"/>
            <item>
              <linkId value="coverage.kvg.name"/>
              
              <text value="Name der Versicherung"/>
              <type value="string"/>
            </item>
            <item>
              <linkId value="coverage.kvg.insuranceCardNumber"/>
              
              <text value="Kennnummer der Versichertenkarte"/>
              <type value="string"/>
            </item>
          </item>
          <item>
            <linkId value="coverage.uvg"/>
            
            <text value="Unfallversicherung (nach UVG)"/>
            <type value="group"/>
            <item>
              <linkId value="coverage.uvg.name"/>
              
              <text value="Name der Versicherung"/>
              <type value="string"/>
            </item>
            <item>
              <linkId value="coverage.uvg.claimNumber"/>
              
              <text value="Schadennummer"/>
              <type value="string"/>
            </item>
          </item>
          <item>
            <linkId value="coverage.vvg"/>
            
            <text value="Zusatzversicherung (nach VVG)"/>
            <type value="group"/>
            <item>
              <linkId value="coverage.vvg.name"/>
              
              <text value="Name der Versicherung"/>
              <type value="string"/>
            </item>
            <item>
              <linkId value="coverage.vvg.insuranceCardNumber"/>
              
              <text value="Kennnummer der Versichertenkarte"/>
              <type value="string"/>
            </item>
          </item>
          <item>
            <linkId value="coverage.iv"/>
            
            <text value="Invalidenversicherung (IV)"/>
            <type value="group"/>
            <item>
              <linkId value="coverage.iv.verfuegungsnummer"/>
              
              <text value="IV-Verfügungsnummer"/>
              <type value="string"/>
            </item>
          </item>
          <item>
            <linkId value="coverage.mv"/>
            
            <text value="Militärversicherung (MV)"/>
            <type value="group"/>
            <item>
              <linkId value="coverage.mv.versichertennummer"/>
              
              <text value="MV-Versichertennummer"/>
              <type value="string"/>
            </item>
          </item>
          <item>
            <linkId value="coverage.self"/>
            
            <text value="Selbstzahler"/>
            <type value="group"/>
            <item>
              <linkId value="coverage.self.patient"/>
              
              <text value="Patient selbst"/>
              <type value="boolean"/>
            </item>
            <item>
              <linkId value="coverage.self.patientRelatedPerson"/>
              
              <text value="Andere Person"/>
              <type value="boolean"/>
              <enableWhen>
                <question value="coverage.self.patient"/>
                <operator value="="/>
                <answerBoolean value="false"/>
              </enableWhen>
            </item>
            <item>
              <extension url="http://hl7.org/fhir/StructureDefinition/variable">
                <valueExpression>
                  <name value="linkIdPrefix"/>
                  <language value="text/fhirpath"/>
                  <expression value="'coverage.self.relatedPerson.'"/>
                </valueExpression>
              </extension>
              <linkId value="coverage.self.relatedPerson"/>
              
              <text value="Andere Person"/>
              <type value="group"/>
              <enableWhen>
                <question value="coverage.self.patientRelatedPerson"/>
                <operator value="="/>
                <answerBoolean value="true"/>
              </enableWhen>
              <item>
                <linkId value="coverage.self.relatedPerson.familyName"/>
                
                <text value="Name"/>
                <type value="string"/>
              </item>
              <item>
                <linkId value="coverage.self.relatedPerson.givenName"/>
                
                <text value="Vorname"/>
                <type value="string"/>
              </item>
              <item>
                <linkId value="coverage.self.relatedPerson.phone"/>
                
                <text value="Telefon"/>
                <type value="string"/>
                <repeats value="true"/>
              </item>
              <item>
                <linkId value="coverage.self.relatedPerson.email"/>
                
                <text value="E-Mail"/>
                <type value="string"/>
              </item>
              <item>
                <extension url="http://hl7.org/fhir/uv/sdc/StructureDefinition/sdc-questionnaire-initialExpression">
                  <valueExpression>
                    <language value="text/fhirpath"/>
                    <expression value="%address.line"/>
                  </valueExpression>
                </extension>
                <linkId value="coverage.self.relatedPerson.streetAddressLine"/>
                <text value="Strasse, Hausnummer, Postfach etc."/>
                <type value="string"/>
                <repeats value="true"/>
              </item>
              <item>
                <extension url="http://hl7.org/fhir/uv/sdc/StructureDefinition/sdc-questionnaire-initialExpression">
                  <valueExpression>
                    <language value="text/fhirpath"/>
                    <expression value="%address.postalCode"/>
                  </valueExpression>
                </extension>
                <linkId value="coverage.self.relatedPerson.postalCode"/>
                <text value="PLZ"/>
                <type value="string"/>
              </item>
              <item>
                <extension url="http://hl7.org/fhir/uv/sdc/StructureDefinition/sdc-questionnaire-initialExpression">
                  <valueExpression>
                    <language value="text/fhirpath"/>
                    <expression value="%address.city"/>
                  </valueExpression>
                </extension>
                <linkId value="coverage.self.relatedPerson.city"/>
                <text value="Ort"/>
                <type value="string"/>
              </item>
              <item>
                <extension url="http://hl7.org/fhir/uv/sdc/StructureDefinition/sdc-questionnaire-initialExpression">
                  <valueExpression>
                    <language value="text/fhirpath"/>
                    <expression value="%address.country"/>
                  </valueExpression>
                </extension>
                <linkId value="coverage.self.relatedPerson.country"/>
                <text value="Land"/>
                <type value="string"/>
              </item>
            </item>
          </item>
          <item>
            <linkId value="coverage.other"/>
            
            <text value="Anderer Kostenträger"/>
            <type value="group"/>
            <item>
              <linkId value="coverage.other.name"/>
              
              <text value="Name des Kostenträgers"/>
              <type value="string"/>
            </item>
            <item>
              <linkId value="coverage.other.id"/>
              
              <text value="Beliebige ID"/>
              <type value="string"/>
            </item>
            <item>
              <linkId value="coverage.other.id.note"/>
              
              <text value="Bemerkung zur ID"/>
              <type value="string"/>
            </item>
          </item>
        </item>
        <item>
          <linkId value="sender"/>
          <text value="Absender"/>
          <type value="group"/>
          <required value="true"/>
          <item>
            <extension url="http://hl7.org/fhir/StructureDefinition/variable">
              <valueExpression>
                <name value="senderPractitionerRoles"/>
                <language value="application/x-fhir-query"/>
                <expression value="PractitionerRole?practitioner={{%user.id}}"/>
              </valueExpression>
            </extension>
            <extension url="http://hl7.org/fhir/StructureDefinition/variable">
              <valueExpression>
                <name value="senderPractitionerRole"/>
                <language value="text/fhirpath"/>
                <expression value="%senderPractitionerRoles.entry[0].resource"/>
              </valueExpression>
            </extension>
            <extension url="http://hl7.org/fhir/StructureDefinition/variable">
              <valueExpression>
                <name value="senderOrganizations"/>
                <language value="application/x-fhir-query"/>
                <expression value="Organization?_id={{%senderPractitionerRole.organization.reference}}"/>
              </valueExpression>
            </extension>
            <extension url="http://hl7.org/fhir/StructureDefinition/variable">
              <valueExpression>
                <name value="senderOrganization"/>
                <language value="text/fhirpath"/>
                <expression value="%senderOrganizations.entry[0].resource"/>
              </valueExpression>
            </extension>
            <extension url="http://hl7.org/fhir/StructureDefinition/variable">
              <valueExpression>
                <name value="address"/>
                <language value="text/fhirpath"/>
                <expression value="%senderOrganization.address"/>
              </valueExpression>
            </extension>
            <linkId value="sender.author"/>
            
            <text value="Verantwortlicher"/>
            <type value="group"/>
            <required value="true"/>
            <item>
              <linkId value="sender.author.practitioner"/>
              
              <text value="Verantwortliche Person"/>
              <type value="group"/>
              <item>
                <linkId value="sender.author.practitioner.title"/>
                
                <text value="Titel"/>
                <type value="string"/>
              </item>
              <item>
                <extension url="http://hl7.org/fhir/uv/sdc/StructureDefinition/sdc-questionnaire-initialExpression">
                  <valueExpression>
                    <language value="text/fhirpath"/>
                    <expression value="%user.name.family"/>
                  </valueExpression>
                </extension>
                <linkId value="sender.author.practitioner.familyName"/>
                
                <text value="Name"/>
                <type value="string"/>
              </item>
              <item>
                <extension url="http://hl7.org/fhir/uv/sdc/StructureDefinition/sdc-questionnaire-initialExpression">
                  <valueExpression>
                    <language value="text/fhirpath"/>
                    <expression value="%user.name.given"/>
                  </valueExpression>
                </extension>
                <linkId value="sender.author.practitioner.givenName"/>
                
                <text value="Vorname"/>
                <type value="string"/>
              </item>
              <item>
                <extension url="http://hl7.org/fhir/uv/sdc/StructureDefinition/sdc-questionnaire-initialExpression">
                  <valueExpression>
                    <language value="text/fhirpath"/>
                    <expression value="%user.identifier.where(system='urn:oid:2.51.1.3').value"/>
                  </valueExpression>
                </extension>
                <linkId value="sender.author.practitioner.gln"/>
                
                <text value="GLN"/>
                <type value="string"/>
              </item>
              <item>
                <extension url="http://hl7.org/fhir/uv/sdc/StructureDefinition/sdc-questionnaire-initialExpression">
                  <valueExpression>
                    <language value="text/fhirpath"/>
                    <expression value="%user.identifier.where(system='urn:oid:2.16.756.5.30.1.123.100.2.1.1').value"/>
                  </valueExpression>
                </extension>
                <linkId value="sender.author.practitioner.zsr"/>
                
                <text value="ZSR"/>
                <type value="string"/>
              </item>
              <item>
                <extension url="http://hl7.org/fhir/uv/sdc/StructureDefinition/sdc-questionnaire-initialExpression">
                  <valueExpression>
                    <language value="text/fhirpath"/>
                    <expression value="%user.telecom.where(system='phone').value"/>
                  </valueExpression>
                </extension>
                <linkId value="sender.author.practitioner.phone"/>
                
                <text value="Telefon"/>
                <type value="string"/>
              </item>
              <item>
                <extension url="http://hl7.org/fhir/uv/sdc/StructureDefinition/sdc-questionnaire-initialExpression">
                  <valueExpression>
                    <language value="text/fhirpath"/>
                    <expression value="%user.telecom.where(system='email').value"/>
                  </valueExpression>
                </extension>
                <linkId value="sender.author.practitioner.email"/>
                
                <text value="E-Mail"/>
                <type value="string"/>
              </item>
            </item>
            <item>
              <extension url="http://hl7.org/fhir/StructureDefinition/variable">
                <valueExpression>
                  <name value="linkIdPrefix"/>
                  <language value="text/fhirpath"/>
                  <expression value="'sender.author.organization.'"/>
                </valueExpression>
              </extension>
              <linkId value="sender.author.organization"/>
              
              <text value="Verantwortliche Organisation"/>
              <type value="group"/>
              <item>
                <extension url="http://hl7.org/fhir/uv/sdc/StructureDefinition/sdc-questionnaire-initialExpression">
                  <valueExpression>
                    <language value="text/fhirpath"/>
                    <expression value="%senderOrganization.name"/>
                  </valueExpression>
                </extension>
                <linkId value="sender.author.organization.name"/>
                
                <text value="Name der Organisation"/>
                <type value="string"/>
              </item>
              <item>
                <extension url="http://hl7.org/fhir/uv/sdc/StructureDefinition/sdc-questionnaire-initialExpression">
                  <valueExpression>
                    <language value="text/fhirpath"/>
                    <expression value="%senderOrganization.identifier.where(system='urn:oid:2.51.1.3').value"/>
                  </valueExpression>
                </extension>
                <linkId value="sender.author.organization.gln"/>
                
                <text value="GLN"/>
                <type value="string"/>
              </item>
              <item>
                <extension url="http://hl7.org/fhir/uv/sdc/StructureDefinition/sdc-questionnaire-initialExpression">
                  <valueExpression>
                    <language value="text/fhirpath"/>
                    <expression value="%address.line"/>
                  </valueExpression>
                </extension>
                <linkId value="sender.author.organization.streetAddressLine"/>
                <text value="Strasse, Hausnummer, Postfach etc."/>
                <type value="string"/>
                <repeats value="true"/>
              </item>
              <item>
                <extension url="http://hl7.org/fhir/uv/sdc/StructureDefinition/sdc-questionnaire-initialExpression">
                  <valueExpression>
                    <language value="text/fhirpath"/>
                    <expression value="%address.postalCode"/>
                  </valueExpression>
                </extension>
                <linkId value="sender.author.organization.postalCode"/>
                <text value="PLZ"/>
                <type value="string"/>
              </item>
              <item>
                <extension url="http://hl7.org/fhir/uv/sdc/StructureDefinition/sdc-questionnaire-initialExpression">
                  <valueExpression>
                    <language value="text/fhirpath"/>
                    <expression value="%address.city"/>
                  </valueExpression>
                </extension>
                <linkId value="sender.author.organization.city"/>
                <text value="Ort"/>
                <type value="string"/>
              </item>
              <item>
                <extension url="http://hl7.org/fhir/uv/sdc/StructureDefinition/sdc-questionnaire-initialExpression">
                  <valueExpression>
                    <language value="text/fhirpath"/>
                    <expression value="%address.country"/>
                  </valueExpression>
                </extension>
                <linkId value="sender.author.organization.country"/>
                <text value="Land"/>
                <type value="string"/>
              </item>
            </item>
          </item>
          <item>
            <linkId value="sender.dataenterer"/>
            
            <text value="Erfasser"/>
            <type value="group"/>
            <item>
              <extension url="http://hl7.org/fhir/StructureDefinition/variable">
                <valueExpression>
                  <name value="linkIdPrefix"/>
                  <language value="text/fhirpath"/>
                  <expression value="'sender.dataenterer.practitioner.'"/>
                </valueExpression>
              </extension>
              <linkId value="sender.dataenterer.practitioner"/>
              
              <text value="Erfassende Person"/>
              <type value="group"/>
              <item>
                <linkId value="sender.dataenterer.practitioner.title"/>
                
                <text value="Titel"/>
                <type value="string"/>
              </item>
              <item>
                <linkId value="sender.dataenterer.practitioner.familyName"/>
                
                <text value="Name"/>
                <type value="string"/>
              </item>
              <item>
                <linkId value="sender.dataenterer.practitioner.givenName"/>
                
                <text value="Vorname"/>
                <type value="string"/>
              </item>
              <item>
                <linkId value="sender.dataenterer.practitioner.phone"/>
                
                <text value="Telefon"/>
                <type value="string"/>
              </item>
              <item>
                <linkId value="sender.dataenterer.practitioner.email"/>
                
                <text value="E-Mail"/>
                <type value="string"/>
              </item>
            </item>
          </item>
        </item>
        <item>
          <linkId value="receiverCopy"/>
          
          <text value="Kopieempfänger (Kopie dieses Auftrags und aller daraus resultierenden Resultate)"/>
          <type value="group"/>
          <item>
            <linkId value="receiverCopy.practitionerRole"/>
            
            <text value="Gesundheitsfachperson oder -organisation"/>
            <type value="group"/>
            <repeats value="true"/>
            <item>
              <extension url="http://hl7.org/fhir/StructureDefinition/variable">
                <valueExpression>
                  <name value="linkIdPrefix"/>
                  <language value="text/fhirpath"/>
                  <expression value="'receiverCopy.practitionerRole.practitioner.'"/>
                </valueExpression>
              </extension>
              <linkId value="receiverCopy.practitionerRole.practitioner"/>
              
              <text value="Gesundheitsfachperson"/>
              <type value="group"/>
              <item>
                <linkId value="receiverCopy.practitionerRole.practitioner.title"/>
                
                <text value="Titel"/>
                <type value="string"/>
              </item>
              <item>
                <linkId value="receiverCopy.practitionerRole.practitioner.familyName"/>
                
                <text value="Name"/>
                <type value="string"/>
              </item>
              <item>
                <linkId value="receiverCopy.practitionerRole.practitioner.givenName"/>
                
                <text value="Vorname"/>
                <type value="string"/>
              </item>
              <item>
                <linkId value="receiverCopy.practitionerRole.practitioner.phone"/>
                
                <text value="Telefon"/>
                <type value="string"/>
              </item>
              <item>
                <linkId value="receiverCopy.practitionerRole.practitioner.email"/>
                
                <text value="E-Mail"/>
                <type value="string"/>
              </item>
            </item>
            <item>
              <extension url="http://hl7.org/fhir/StructureDefinition/variable">
                <valueExpression>
                  <name value="linkIdPrefix"/>
                  <language value="text/fhirpath"/>
                  <expression value="'receiverCopy.practitionerRole.organization.'"/>
                </valueExpression>
              </extension>
              <linkId value="receiverCopy.practitionerRole.organization"/>
              
              <text value="Gesundheitsorganisatiton"/>
              <type value="group"/>
              <item>
                <linkId value="receiverCopy.practitionerRole.organization.name"/>
                
                <text value="Name der Organisation"/>
                <type value="string"/>
              </item>
              <item>
                <extension url="http://hl7.org/fhir/uv/sdc/StructureDefinition/sdc-questionnaire-initialExpression">
                  <valueExpression>
                    <language value="text/fhirpath"/>
                    <expression value="%address.line"/>
                  </valueExpression>
                </extension>
                <linkId value="receiverCopy.practitionerRole.organization.streetAddressLine"/>
                <text value="Strasse, Hausnummer, Postfach etc."/>
                <type value="string"/>
                <repeats value="true"/>
              </item>
              <item>
                <extension url="http://hl7.org/fhir/uv/sdc/StructureDefinition/sdc-questionnaire-initialExpression">
                  <valueExpression>
                    <language value="text/fhirpath"/>
                    <expression value="%address.postalCode"/>
                  </valueExpression>
                </extension>
                <linkId value="receiverCopy.practitionerRole.organization.postalCode"/>
                <text value="PLZ"/>
                <type value="string"/>
              </item>
              <item>
                <extension url="http://hl7.org/fhir/uv/sdc/StructureDefinition/sdc-questionnaire-initialExpression">
                  <valueExpression>
                    <language value="text/fhirpath"/>
                    <expression value="%address.city"/>
                  </valueExpression>
                </extension>
                <linkId value="receiverCopy.practitionerRole.organization.city"/>
                <text value="Ort"/>
                <type value="string"/>
              </item>
              <item>
                <extension url="http://hl7.org/fhir/uv/sdc/StructureDefinition/sdc-questionnaire-initialExpression">
                  <valueExpression>
                    <language value="text/fhirpath"/>
                    <expression value="%address.country"/>
                  </valueExpression>
                </extension>
                <linkId value="receiverCopy.practitionerRole.organization.country"/>
                <text value="Land"/>
                <type value="string"/>
              </item>
            </item>
          </item>
          <item>
            <linkId value="receiverCopy.patient"/>
            
            <text value="Patient selbst"/>
            <type value="boolean"/>
          </item>
          <item>
            <linkId value="receiverCopy.relatedPerson"/>
            
            <text value="Andere Person"/>
            <type value="group"/>
            <repeats value="true"/>
            <item>
              <extension url="http://hl7.org/fhir/StructureDefinition/variable">
                <valueExpression>
                  <name value="linkIdPrefix"/>
                  <language value="text/fhirpath"/>
                  <expression value="'receiverCopy.relatedPerson.'"/>
                </valueExpression>
              </extension>
              <linkId value="receiverCopy.relatedPerson.familyName"/>
              
              <text value="Name"/>
              <type value="string"/>
            </item>
            <item>
              <linkId value="receiverCopy.relatedPerson.givenName"/>
              
              <text value="Vorname"/>
              <type value="string"/>
            </item>
            <item>
              <linkId value="receiverCopy.relatedPerson.phone"/>
              
              <text value="Telefon"/>
              <type value="string"/>
              <repeats value="true"/>
            </item>
            <item>
              <linkId value="receiverCopy.relatedPerson.email"/>
              
              <text value="E-Mail"/>
              <type value="string"/>
            </item>
            <item>
              <extension url="http://hl7.org/fhir/uv/sdc/StructureDefinition/sdc-questionnaire-initialExpression">
                <valueExpression>
                  <language value="text/fhirpath"/>
                  <expression value="%address.line"/>
                </valueExpression>
              </extension>
              <linkId value="receiverCopy.relatedPerson.streetAddressLine"/>
              <text value="Strasse, Hausnummer, Postfach etc."/>
              <type value="string"/>
              <repeats value="true"/>
            </item>
            <item>
              <extension url="http://hl7.org/fhir/uv/sdc/StructureDefinition/sdc-questionnaire-initialExpression">
                <valueExpression>
                  <language value="text/fhirpath"/>
                  <expression value="%address.postalCode"/>
                </valueExpression>
              </extension>
              <linkId value="receiverCopy.relatedPerson.postalCode"/>
              <text value="PLZ"/>
              <type value="string"/>
            </item>
            <item>
              <extension url="http://hl7.org/fhir/uv/sdc/StructureDefinition/sdc-questionnaire-initialExpression">
                <valueExpression>
                  <language value="text/fhirpath"/>
                  <expression value="%address.city"/>
                </valueExpression>
              </extension>
              <linkId value="receiverCopy.relatedPerson.city"/>
              <text value="Ort"/>
              <type value="string"/>
            </item>
            <item>
              <extension url="http://hl7.org/fhir/uv/sdc/StructureDefinition/sdc-questionnaire-initialExpression">
                <valueExpression>
                  <language value="text/fhirpath"/>
                  <expression value="%address.country"/>
                </valueExpression>
              </extension>
              <linkId value="receiverCopy.relatedPerson.country"/>
              <text value="Land"/>
              <type value="string"/>
            </item>
          </item>
        </item>
        <item>
          <linkId value="antecedentEpisodeOfCare"/>
          
          <text value="Vorgängiger Aufenthalt in Spital / Heim"/>
          <type value="group"/>
          <item>
            <linkId value="antecedentEpisodeOfCare.start"/>
            
            <text value="Von"/>
            <type value="dateTime"/>
          </item>
          <item>
            <linkId value="antecedentEpisodeOfCare.end"/>
            
            <text value="Bis"/>
            <type value="dateTime"/>
          </item>
          <item>
            <extension url="http://hl7.org/fhir/StructureDefinition/variable">
              <valueExpression>
                <name value="linkIdPrefix"/>
                <language value="text/fhirpath"/>
                <expression value="'antecedentEpisodeOfCare.managingOrganization.'"/>
              </valueExpression>
            </extension>
            <linkId value="antecedentEpisodeOfCare.managingOrganization"/>
            
            <text value="Spital /Heim"/>
            <type value="group"/>
            <item>
              <linkId value="antecedentEpisodeOfCare.managingOrganization.name"/>
              
              <text value="Name der Organisation"/>
              <type value="string"/>
            </item>
            <item>
              <extension url="http://hl7.org/fhir/uv/sdc/StructureDefinition/sdc-questionnaire-initialExpression">
                <valueExpression>
                  <language value="text/fhirpath"/>
                  <expression value="%address.line"/>
                </valueExpression>
              </extension>
              <linkId value="antecedentEpisodeOfCare.managingOrganization.streetAddressLine"/>
              <text value="Strasse, Hausnummer, Postfach etc."/>
              <type value="string"/>
              <repeats value="true"/>
            </item>
            <item>
              <extension url="http://hl7.org/fhir/uv/sdc/StructureDefinition/sdc-questionnaire-initialExpression">
                <valueExpression>
                  <language value="text/fhirpath"/>
                  <expression value="%address.postalCode"/>
                </valueExpression>
              </extension>
              <linkId value="antecedentEpisodeOfCare.managingOrganization.postalCode"/>
              <text value="PLZ"/>
              <type value="string"/>
            </item>
            <item>
              <extension url="http://hl7.org/fhir/uv/sdc/StructureDefinition/sdc-questionnaire-initialExpression">
                <valueExpression>
                  <language value="text/fhirpath"/>
                  <expression value="%address.city"/>
                </valueExpression>
              </extension>
              <linkId value="antecedentEpisodeOfCare.managingOrganization.city"/>
              <text value="Ort"/>
              <type value="string"/>
            </item>
            <item>
              <extension url="http://hl7.org/fhir/uv/sdc/StructureDefinition/sdc-questionnaire-initialExpression">
                <valueExpression>
                  <language value="text/fhirpath"/>
                  <expression value="%address.country"/>
                </valueExpression>
              </extension>
              <linkId value="antecedentEpisodeOfCare.managingOrganization.country"/>
              <text value="Land"/>
              <type value="string"/>
            </item>
          </item>
        </item>
        <item>
          <linkId value="appointment"/>
          
          <text value="Ort und Zeit der Durchführung der angeforderten Leistung"/>
          <type value="group"/>
          <repeats value="true"/>
          <item>
            <extension url="http://hl7.org/fhir/StructureDefinition/variable">
              <valueExpression>
                <name value="linkIdPrefix"/>
                <language value="text/fhirpath"/>
                <expression value="'appointment.location.'"/>
              </valueExpression>
            </extension>
            <linkId value="appointment.location"/>
            
            <text value="Ort der Durchführung"/>
            <type value="group"/>
            <item>
              <linkId value="appointment.location.name"/>
              
              <text value="Name"/>
              <type value="string"/>
              <required value="true"/>
            </item>
            <item>
              <linkId value="appointment.location.phone"/>
              
              <text value="Telefon"/>
              <type value="string"/>
            </item>
            <item>
              <linkId value="appointment.location.email"/>
              
              <text value="E-Mail"/>
              <type value="string"/>
            </item>
            <item>
              <extension url="http://hl7.org/fhir/uv/sdc/StructureDefinition/sdc-questionnaire-initialExpression">
                <valueExpression>
                  <language value="text/fhirpath"/>
                  <expression value="%address.line"/>
                </valueExpression>
              </extension>
              <linkId value="appointment.location.streetAddressLine"/>
              <text value="Strasse, Hausnummer, Postfach etc."/>
              <type value="string"/>
              <repeats value="true"/>
            </item>
            <item>
              <extension url="http://hl7.org/fhir/uv/sdc/StructureDefinition/sdc-questionnaire-initialExpression">
                <valueExpression>
                  <language value="text/fhirpath"/>
                  <expression value="%address.postalCode"/>
                </valueExpression>
              </extension>
              <linkId value="appointment.location.postalCode"/>
              <text value="PLZ"/>
              <type value="string"/>
            </item>
            <item>
              <extension url="http://hl7.org/fhir/uv/sdc/StructureDefinition/sdc-questionnaire-initialExpression">
                <valueExpression>
                  <language value="text/fhirpath"/>
                  <expression value="%address.city"/>
                </valueExpression>
              </extension>
              <linkId value="appointment.location.city"/>
              <text value="Ort"/>
              <type value="string"/>
            </item>
            <item>
              <extension url="http://hl7.org/fhir/uv/sdc/StructureDefinition/sdc-questionnaire-initialExpression">
                <valueExpression>
                  <language value="text/fhirpath"/>
                  <expression value="%address.country"/>
                </valueExpression>
              </extension>
              <linkId value="appointment.location.country"/>
              <text value="Land"/>
              <type value="string"/>
            </item>
          </item>
          <item>
            <linkId value="appointment.requestedPeriod"/>
            
            <text value="Datum und Zeit, wann der Termin bevorzugt geplant werden soll"/>
            <type value="group"/>
            <item>
              <linkId value="appointment.requestedPeriod.start"/>
              
              <text value="Von"/>
              <type value="dateTime"/>
            </item>
            <item>
              <linkId value="appointment.requestedPeriod.end"/>
              
              <text value="Bis"/>
              <type value="dateTime"/>
            </item>
          </item>
          <item>
            <linkId value="appointment.status"/>
            
            <text value="Status"/>
            <type value="choice"/>
            <required value="true"/>
            <answerOption>
              <valueCoding>
                <system value="http://hl7.org/fhir/appointmentstatus"/>
                <code value="proposed"/>
                <display value="Wunsch des Patienten (vorgeschlagen)"/>
              </valueCoding>
              <initialSelected value="true"/>
            </answerOption>
            <answerOption>
              <valueCoding>
                <system value="http://hl7.org/fhir/appointmentstatus"/>
                <code value="pending"/>
                <display value="Vom Patienten bestätigt, aber vom Leistungserbringer noch nicht (ausstehend)"/>
              </valueCoding>
            </answerOption>
            <answerOption>
              <valueCoding>
                <system value="http://hl7.org/fhir/appointmentstatus"/>
                <code value="booked"/>
                <display value="Vom Patienten und Leistungserbringer bestätigt (gebucht)"/>
              </valueCoding>
            </answerOption>
          </item>
          <item>
            <linkId value="appointment.patientInstruction"/>
            
            <text value="Patienteninformation für diesen Termin"/>
            <type value="string"/>
          </item>
        </item>
        <item>
          <linkId value="consent"/>
          
          <text value="Einverständniserklärung"/>
          <type value="group"/>
          <item>
            <linkId value="patient.consent.statement"/>
            <text value="Ist der Patient über die Anmeldung informiert und explizit einverstanden?"/>
            <type value="choice"/>
            <answerOption>
              <valueCoding>
                <system value="http://fhir.ch/ig/ch-orf/CodeSystem/ch-orf-cs-consentstatus"/>
                <code value="ExplicitAgreement"/>
                <display value="Patient is informed and has explicitly agreed"/>
              </valueCoding>
            </answerOption>
            <answerOption>
              <valueCoding>
                <system value="http://fhir.ch/ig/ch-orf/CodeSystem/ch-orf-cs-consentstatus"/>
                <code value="Other"/>
                <display value="Other situation such as 'implicit agreement', 'agreed by legal guardian'  etc."/>
              </valueCoding>
            </answerOption>
            <item>
              <linkId value="patient.consent.statement.note"/>
              <text value="Anmerkung"/>
              <type value="string"/>
            </item>
          </item>
        </item>
        <item>
          <linkId value="note"/>
          <text value="Bemerkungen"/>
          <type value="group"/>
          <repeats value="true"/>
          <item>
            <linkId value="note.text"/>
            
            <text value="Kommentar"/>
            <type value="string"/>
          </item>
        </item>
      </Questionnaire>
    </resource>
  </entry>
  <entry>
    <fullUrl value="urn:uuid:c25edd30-4206-440d-aeaa-4e27ffbb21b4"/>
    <resource>
      <PractitionerRole>
        <language value="de-CH"/>
        <practitioner>
          <reference value="urn:uuid:12a25f9f-1df1-46f5-9bea-524291d3bee1"/>
        </practitioner>
      </PractitionerRole>
    </resource>
  </entry>
  <entry>
    <fullUrl value="urn:uuid:12a25f9f-1df1-46f5-9bea-524291d3bee1"/>
    <resource>
      <Practitioner>
        <language value="de-CH"/>
        <name>
          <family value="Iller"/>
          <given value="Frederica"/>
          <prefix value="Dr. med.">
            <extension url="http://hl7.org/fhir/StructureDefinition/iso21090-EN-qualifier">
              <valueCode value="AC"/>
            </extension>
          </prefix>
        </name>
        <telecom>
          <system value="phone"/>
          <value value="044 503 44 44"/>
        </telecom>
        <telecom>
          <system value="email"/>
          <value value="f.iller@univerityhospital.ch"/>
        </telecom>
      </Practitioner>
    </resource>
  </entry>
  <entry>
    <fullUrl value="urn:uuid:2e5e9263-ef5f-41d0-bf46-74797451b149"/>
    <resource>
      <PractitionerRole>
        <language value="de-CH"/>
        <practitioner>
          <reference value="urn:uuid:1ff4c57a-6454-4c7e-af57-7062bec59b70"/>
        </practitioner>
      </PractitionerRole>
    </resource>
  </entry>
  <entry>
    <fullUrl value="urn:uuid:1ff4c57a-6454-4c7e-af57-7062bec59b70"/>
    <resource>
      <Practitioner>
        <language value="de-CH"/>
        <name>
          <family value="Lacer"/>
          <given value="Paul"/>
          <prefix value="Dr. med.">
            <extension url="http://hl7.org/fhir/StructureDefinition/iso21090-EN-qualifier">
              <valueCode value="AC"/>
            </extension>
          </prefix>
        </name>
        <telecom>
          <system value="phone"/>
          <value value="044 987 65 43"/>
        </telecom>
        <telecom>
          <system value="email"/>
          <value value="p.lacer@regionalhospital.ch"/>
        </telecom>
      </Practitioner>
    </resource>
  </entry>
  <entry>
    <fullUrl value="urn:uuid:018977be-801c-46e6-81a8-daed933558fe"/>
    <resource>
      <PractitionerRole>
        <language value="de-CH"/>
        <practitioner>
          <reference value="urn:uuid:6a864e84-6707-4b73-96ae-4b94a8964ae3"/>
        </practitioner>
        <organization>
          <reference value="urn:uuid:2a9a5035-4423-44a3-a4df-8d64cceac6ec"/>
        </organization>
      </PractitionerRole>
    </resource>
  </entry>
  <entry>
    <fullUrl value="urn:uuid:6a864e84-6707-4b73-96ae-4b94a8964ae3"/>
    <resource>
      <Practitioner>
        <language value="de-CH"/>
        <identifier>
          <system value="urn:oid:2.51.1.3"/>
          <value value="7601000618306"/>
        </identifier>
        <name>
          <family value="Iller"/>
          <given value="Frederica"/>
          <prefix value="Dr. med.">
            <extension url="http://hl7.org/fhir/StructureDefinition/iso21090-EN-qualifier">
              <valueCode value="AC"/>
            </extension>
          </prefix>
        </name>
        <telecom>
          <system value="phone"/>
          <value value="044 503 44 44"/>
        </telecom>
        <telecom>
          <system value="email"/>
          <value value="f.iller@universityhospital.ch"/>
        </telecom>
      </Practitioner>
    </resource>
  </entry>
  <entry>
    <fullUrl value="urn:uuid:2a9a5035-4423-44a3-a4df-8d64cceac6ec"/>
    <resource>
      <Organization>
        <language value="de-CH"/>
        <name value="University Hospital"/>
        <address>
          <line value="Uniweg 33"/>
          <line value="Radiology"/>
          <city value="Zürich"/>
          <postalCode value="8000"/>
          <country value="Schweiz"/>
        </address>
      </Organization>
    </resource>
  </entry>
  <entry>
    <fullUrl value="urn:uuid:aa73b56c-7bf7-4465-8388-be59f5c35b91"/>
    <resource>
      <PractitionerRole>
        <language value="de-CH"/>
        <practitioner>
          <reference value="urn:uuid:4af9ebaf-cd14-446f-9af3-b27b2352f894"/>
        </practitioner>
        <organization>
          <reference value="urn:uuid:ae7cfef9-c8ee-474d-9bc0-6ee2e0f53b9a"/>
        </organization>
      </PractitionerRole>
    </resource>
  </entry>
  <entry>
    <fullUrl value="urn:uuid:4af9ebaf-cd14-446f-9af3-b27b2352f894"/>
    <resource>
      <Practitioner>
        <language value="de-CH"/>
        <identifier>
          <system value="urn:oid:2.51.1.3"/>
          <value value="7601000050717"/>
        </identifier>
        <name>
          <family value="Lacer"/>
          <given value="Paul"/>
          <prefix value="Dr. med.">
            <extension url="http://hl7.org/fhir/StructureDefinition/iso21090-EN-qualifier">
              <valueCode value="AC"/>
            </extension>
          </prefix>
        </name>
        <telecom>
          <system value="phone"/>
          <value value="044 987 65 43"/>
        </telecom>
        <telecom>
          <system value="email"/>
          <value value="p.lacer@regionalhospital.ch"/>
        </telecom>
      </Practitioner>
    </resource>
  </entry>
  <entry>
    <fullUrl value="urn:uuid:ae7cfef9-c8ee-474d-9bc0-6ee2e0f53b9a"/>
    <resource>
      <Organization>
        <language value="de-CH"/>
        <name value="Regional Hospital"/>
        <address>
          <line value="Musterstrasse 129"/>
          <city value="Zürich"/>
          <postalCode value="8000"/>
          <country value="Schweiz"/>
        </address>
      </Organization>
    </resource>
  </entry>
</Bundle>