<?xml version="1.0" encoding="UTF-8"?>
<Bundle xmlns="http://hl7.org/fhir">
  <id value="order-referral-form-mapped"/>
  <identifier>
    <system value="urn:ietf:rfc:3986"/>
    <value value="urn:uuid:9b60d3c1-2b56-4d65-8fcd-14639fc4312a"/>
  </identifier>
  <type value="document"/>
  <timestamp value="2021-06-15T05:46:48+00:00"/>
  <entry>
    <fullUrl value="urn:uuid:f85c6d91-423d-445a-939c-a7c1b7498ddb"/>
    <resource>
      <Composition>
        <extension url="http://fhir.ch/ig/ch-orf/StructureDefinition/ch-orf-precedentdocument">
          <valueIdentifier>
            <system value="urn:ietf:rfc:3986"/>
            <value value="urn:uuid:1622f2fb-6ba3-4532-9aed-35b158def187"/>
          </valueIdentifier>
        </extension>
        <extension url="http://fhir.ch/ig/ch-orf/StructureDefinition/ch-orf-urgentnoficationcontactforthisdocument">
          <valueReference>
            <reference value="urn:uuid:621d538a-3837-4c97-b6d5-c9661c493383"/>
          </valueReference>
        </extension>
        <extension url="http://fhir.ch/ig/ch-orf/StructureDefinition/ch-orf-urgentnoficationcontactfortheresponsetothisdocument">
          <valueReference>
            <reference value="urn:uuid:11e864ff-443d-4cd3-9e28-31a9c3f6751d"/>
          </valueReference>
        </extension>
        <extension url="http://fhir.ch/ig/ch-orf/StructureDefinition/ch-orf-receiver">
          <valueReference>
            <reference value="urn:uuid:0b342eb6-26db-4943-b67b-b56399b557c5"/>
          </valueReference>
        </extension>
        <extension url="http://fhir.ch/ig/ch-core/StructureDefinition/ch-ext-epr-dataenterer">
          <extension url="enterer">
            <valueReference>
              <reference value="urn:uuid:22a635e9-71ca-43ff-91cb-6c394fda79b1"/>
            </valueReference>
          </extension>
        </extension>
        <extension url="http://fhir.ch/ig/ch-orf/StructureDefinition/ch-orf-copyreceiver">
          <valueReference>
            <reference value="urn:uuid:3df0adb5-e405-4e88-bbc0-0686cb2964c8"/>
          </valueReference>
        </extension>
        <extension url="http://fhir.ch/ig/ch-orf/StructureDefinition/ch-orf-copyreceiver">
          <valueReference>
            <reference value="urn:uuid:1eeeaaa1-4395-43b0-85e9-4f538dfb83ed"/>
          </valueReference>
        </extension>
        <status value="final"/>
        <type>
          <coding>
            <system value="http://snomed.info/sct"/>
            <code value="419891008"/>
            <display value="Record artifact (record artifact)"/>
          </coding>
        </type>
        <category>
          <coding>
            <system value="http://snomed.info/sct"/>
            <code value="721963009"/>
            <display value="Order (record artifact)"/>
          </coding>
        </category>
        <subject>
          <reference value="urn:uuid:f00720ca-4cee-4a33-9c72-ab8858d05c15"/>
        </subject>
        <date value="2021-06-15T05:46:48+00:00"/>
        <author>
          <reference value="urn:uuid:bbd52527-72f7-47ba-a330-0ebdfcebd2e0"/>
        </author>
        <title value="Order-Referral-Form"/>
        <section>
          <title value="Order-Referral"/>
          <code>
            <coding>
              <system value="http://loinc.org"/>
              <code value="93037-0"/>
              <display value="Portable medical order form"/>
            </coding>
          </code>
          <entry>
            <reference value="urn:uuid:a506b76d-2a4c-4033-ba07-7da95055c118"/>
          </entry>
          <entry>
            <reference value="urn:uuid:3cf36568-0aba-45d3-96d0-1973a8362853"/>
          </entry>
          <entry>
            <reference value="urn:uuid:2bfb1c37-1fad-43ea-b354-f76b16873885"/>
          </entry>
        </section>
      </Composition>
    </resource>
  </entry>
  <entry>
    <fullUrl value="urn:uuid:f00720ca-4cee-4a33-9c72-ab8858d05c15"/>
    <resource>
      <Patient>
        <identifier>
          <type>
            <coding>
              <system value="http://terminology.hl7.org/CodeSystem/v2-0203"/>
              <code value="MR"/>
            </coding>
          </type>
          <system value="urn:oid:2.999.1.2.3.4"/>
          <value value="11.22.33.4567"/>
        </identifier>
        <name>
          <family value="Musterfrau"/>
          <given value="Erika"/>
        </name>
        <name>
          <use value="maiden"/>
          <family value="Ledigname"/>
        </name>
        <telecom>
          <system value="phone"/>
          <value value="079 979 79 79"/>
        </telecom>
        <telecom>
          <system value="email"/>
          <value value="erika@musterfrau.ch"/>
        </telecom>
        <gender value="female"/>
        <birthDate value="1970-03-14"/>
        <address>
          <line value="Musterweg"/>
          <line value="6a"/>
          <city value="Zürich"/>
          <postalCode value="8000"/>
          <country value="Schweiz"/>
        </address>
        <contact>
          <relationship>
            <text value="Guter Freund"/>
          </relationship>
          <name>
            <family value="Freund"/>
            <given value="Max"/>
          </name>
          <telecom>
            <system value="phone"/>
            <value value="079 111 22 33"/>
          </telecom>
          <telecom>
            <system value="email"/>
            <value value="max@freund.ch"/>
          </telecom>
        </contact>
      </Patient>
    </resource>
  </entry>
  <entry>
    <fullUrl value="urn:uuid:a506b76d-2a4c-4033-ba07-7da95055c118"/>
    <resource>
      <QuestionnaireResponse>
        <meta>
          <profile value="http://fhir.ch/ig/ch-orf/StructureDefinition/ch-orf-questionnaireresponse"/>
        </meta>
        <questionnaire value="http://fhir.ch/ig/ch-orf/Questionnaire/order-referral-form"/>
        <status value="completed"/>
        <item>
          <linkId value="order"/>
          <text value="Auftrag"/>
          <item>
            <linkId value="order.placerOrderIdentifier"/>
            <text value="Auftragsnummer des Auftraggebers"/>
            <answer>
              <valueString value="123"/>
            </answer>
          </item>
          <item>
            <linkId value="order.placerOrderIdentifierDomain"/>
            <text value="Identifier Domain der Auftragsnummer des Auftraggebers"/>
            <answer>
              <valueString value="urn:oid:2.999.1.3.4.5.6.7"/>
            </answer>
          </item>
          <item>
            <linkId value="order.fillerOrderIdentifier"/>
            <text value="Auftragsnummer des Auftragsempfängers"/>
            <answer>
              <valueString value="456"/>
            </answer>
          </item>
          <item>
            <linkId value="order.fillerOrderIdentifierDomain"/>
            <text value="Identifier Domain der Auftragsnummer des Auftragsempfängers"/>
            <answer>
              <valueString value="urn:oid:2.999.7.8.9.10.11"/>
            </answer>
          </item>
          <item>
            <linkId value="order.precedentDocumentIdentifier"/>
            <text value="Identifier des Vorgängerdokuments"/>
            <answer>
              <valueString value="1622f2fb-6ba3-4532-9aed-35b158def187"/>
            </answer>
          </item>
          <item>
            <linkId value="order.notificationContactDocument"/>
            <text value="Dringender Benachrichtigungskontakt für dieses Dokument"/>
            <item>
              <linkId value="order.notificationContactDocument.practitioner"/>
              <text value="Zu benachrichtigende Person"/>
              <item>
                <linkId value="order.notificationContactDocument.practitioner.title"/>
                <text value="Titel"/>
                <answer>
                  <valueString value="Dr. med."/>
                </answer>
              </item>
              <item>
                <linkId value="order.notificationContactDocument.practitioner.familyName"/>
                <text value="Name"/>
                <answer>
                  <valueString value="Röntgen"/>
                </answer>
              </item>
              <item>
                <linkId value="order.notificationContactDocument.practitioner.givenName"/>
                <text value="Vorname"/>
                <answer>
                  <valueString value="Hans"/>
                </answer>
              </item>
              <item>
                <linkId value="order.notificationContactDocument.practitioner.phone"/>
                <text value="Telefon"/>
                <answer>
                  <valueString value="044 412 00 99"/>
                </answer>
              </item>
              <item>
                <linkId value="order.notificationContactDocument.practitioner.email"/>
                <text value="E-Mail"/>
                <answer>
                  <valueString value="hans.roentgen@kantonsspital.ch"/>
                </answer>
              </item>
            </item>
          </item>
          <item>
            <linkId value="order.notificationContactDocumentResponse"/>
            <text value="Dringender Benachrichtigungskontakt für die Antwort auf dieses Dokument"/>
            <item>
              <linkId value="order.notificationContactDocumentResponse.practitioner"/>
              <text value="Zu benachrichtigende Person"/>
              <item>
                <linkId value="order.notificationContactDocumentResponse.practitioner.title"/>
                <text value="Titel"/>
                <answer>
                  <valueString value="Dr. med."/>
                </answer>
              </item>
              <item>
                <linkId value="order.notificationContactDocumentResponse.practitioner.familyName"/>
                <text value="Name"/>
                <answer>
                  <valueString value="Meier"/>
                </answer>
              </item>
              <item>
                <linkId value="order.notificationContactDocumentResponse.practitioner.givenName"/>
                <text value="Vorname"/>
                <answer>
                  <valueString value="Sabine"/>
                </answer>
              </item>
              <item>
                <linkId value="order.notificationContactDocumentResponse.practitioner.phone"/>
                <text value="Telefon"/>
                <answer>
                  <valueString value="044 333 22 11"/>
                </answer>
              </item>
              <item>
                <linkId value="order.notificationContactDocumentResponse.practitioner.email"/>
                <text value="E-Mail"/>
                <answer>
                  <valueString value="sabine.meier@praxisseeblick.ch"/>
                </answer>
              </item>
            </item>
          </item>
          <item>
            <linkId value="order.priority"/>
            <text value="Auftragspriorität"/>
            <answer>
              <valueCoding>
                <system value="http://hl7.org/fhir/request-priority"/>
                <code value="routine"/>
              </valueCoding>
            </answer>
          </item>
        </item>
        <item>
          <linkId value="receiver"/>
          <text value="Empfänger"/>
          <item>
            <linkId value="receiver.practitioner"/>
            <text value="Empfangende Person"/>
            <item>
              <linkId value="receiver.practitioner.title"/>
              <text value="Titel"/>
              <answer>
                <valueString value="Dr. med."/>
              </answer>
            </item>
            <item>
              <linkId value="receiver.practitioner.familyName"/>
              <text value="Name"/>
              <answer>
                <valueString value="Röntgen"/>
              </answer>
            </item>
            <item>
              <linkId value="receiver.practitioner.givenName"/>
              <text value="Vorname"/>
              <answer>
                <valueString value="Hans"/>
              </answer>
            </item>
            <item>
              <linkId value="receiver.practitioner.gln"/>
              <text value="GLN"/>
              <answer>
                <valueString value="7601000066878"/>
              </answer>
            </item>
            <item>
              <linkId value="receiver.practitioner.phone"/>
              <text value="Telefon"/>
              <answer>
                <valueString value="044 412 00 99"/>
              </answer>
            </item>
            <item>
              <linkId value="receiver.practitioner.email"/>
              <text value="E-Mail"/>
              <answer>
                <valueString value="hans.roentgen@kantonsspital.ch"/>
              </answer>
            </item>
          </item>
          <item>
            <linkId value="receiver.organization"/>
            <text value="Empfangende Organisation"/>
            <item>
              <linkId value="receiver.organization.name"/>
              <text value="Name der Organisation"/>
              <answer>
                <valueString value="Kantonsspital"/>
              </answer>
            </item>
            <item>
              <linkId value="receiver.organization.streetAddressLine"/>
              <text value="Strasse, Hausnummer, Postfach etc."/>
              <answer>
                <valueString value="Kantonsstrasse 14"/>
              </answer>
              <answer>
                <valueString value="Postfach 14"/>
              </answer>
            </item>
            <item>
              <linkId value="receiver.organization.postalCode"/>
              <text value="PLZ"/>
              <answer>
                <valueString value="8000"/>
              </answer>
            </item>
            <item>
              <linkId value="receiver.organization.city"/>
              <text value="Ort"/>
              <answer>
                <valueString value="Zürich"/>
              </answer>
            </item>
            <item>
              <linkId value="receiver.organization.country"/>
              <text value="Land"/>
              <answer>
                <valueString value="Schweiz"/>
              </answer>
            </item>
          </item>
        </item>
        <item>
          <linkId value="patient"/>
          <text value="Patient"/>
          <item>
            <linkId value="patient.familyName"/>
            <text value="Name"/>
            <answer>
              <valueString value="Musterfrau"/>
            </answer>
          </item>
          <item>
            <linkId value="patient.maidenName"/>
            <text value="Ledigname"/>
            <answer>
              <valueString value="Ledigname"/>
            </answer>
          </item>
          <item>
            <linkId value="patient.givenName"/>
            <text value="Vorname"/>
            <answer>
              <valueString value="Erika"/>
            </answer>
          </item>
          <item>
            <linkId value="patient.localPid"/>
            <text value="Lokale Patienten-ID"/>
            <answer>
              <valueString value="11.22.33.4567"/>
            </answer>
          </item>
          <item>
            <linkId value="patient.localPidDomain"/>
            <text value="Lokale Patienten-ID Domain"/>
            <answer>
              <valueString value="urn:oid:2.999.1.2.3.4"/>
            </answer>
          </item>
          <item>
            <linkId value="patient.birthDate"/>
            <text value="Geburtsdatum"/>
            <answer>
              <valueDate value="1970-03-14"/>
            </answer>
          </item>
          <item>
            <linkId value="patient.gender"/>
            <text value="Geschlecht"/>
            <answer>
              <valueCoding>
                <system value="http://hl7.org/fhir/administrative-gender"/>
                <code value="female"/>
              </valueCoding>
            </answer>
          </item>
          <item>
            <linkId value="patient.phone"/>
            <text value="Telefon"/>
            <answer>
              <valueString value="079 979 79 79"/>
            </answer>
          </item>
          <item>
            <linkId value="patient.email"/>
            <text value="E-Mail"/>
            <answer>
              <valueString value="erika@musterfrau.ch"/>
            </answer>
          </item>
          <item>
            <linkId value="patient.streetAddressLine"/>
            <text value="Strasse, Hausnummer, Postfach etc."/>
            <answer>
              <valueString value="Musterweg"/>
            </answer>
            <answer>
              <valueString value="6a"/>
            </answer>
          </item>
          <item>
            <linkId value="patient.postalCode"/>
            <text value="PLZ"/>
            <answer>
              <valueString value="8000"/>
            </answer>
          </item>
          <item>
            <linkId value="patient.city"/>
            <text value="Ort"/>
            <answer>
              <valueString value="Zürich"/>
            </answer>
          </item>
          <item>
            <linkId value="patient.country"/>
            <text value="Land"/>
            <answer>
              <valueString value="Schweiz"/>
            </answer>
          </item>
          <item>
            <linkId value="patient.contactperson"/>
            <text value="Kontaktperson"/>
            <item>
              <linkId value="patient.contactperson.relationship"/>
              <text value="Beziehung"/>
              <answer>
                <valueString value="Guter Freund"/>
              </answer>
            </item>
            <item>
              <linkId value="patient.contactperson.familyName"/>
              <text value="Name"/>
              <answer>
                <valueString value="Freund"/>
              </answer>
            </item>
            <item>
              <linkId value="patient.contactperson.givenName"/>
              <text value="Vorname"/>
              <answer>
                <valueString value="Max"/>
              </answer>
            </item>
            <item>
              <linkId value="patient.contactperson.phone"/>
              <text value="Telefon"/>
              <answer>
                <valueString value="079 111 22 33"/>
              </answer>
            </item>
            <item>
              <linkId value="patient.contactperson.email"/>
              <text value="E-Mail"/>
              <answer>
                <valueString value="max@freund.ch"/>
              </answer>
            </item>
          </item>
        </item>
        <item>
          <linkId value="requestedEncounter"/>
          <text value="Patientenaufnahme"/>
          <item>
            <linkId value="requestedEncounter.class"/>
            <text value="Voraussichtlich: Ambulant / Stationär / Notfall"/>
            <answer>
              <valueCoding>
                <system value="http://terminology.hl7.org/CodeSystem/v3-ActCode"/>
                <code value="EMER"/>
                <display value="Notfall"/>
              </valueCoding>
            </answer>
          </item>
          <item>
            <linkId value="requestedEncounter.desiredAccommodation"/>
            <text value="Zimmerkategorie"/>
            <answer>
              <valueCoding>
                <system value="http://terminology.hl7.org/CodeSystem/v3-ActCode"/>
                <code value="SP"/>
                <display value="Zweierzimmer"/>
              </valueCoding>
            </answer>
          </item>
        </item>
        <item>
          <linkId value="coverage"/>
          <text value="Kostenträger"/>
          <item>
            <linkId value="coverage.kvg"/>
            <text value="Krankenkasse (nach KVG)"/>
            <item>
              <linkId value="coverage.kvg.name"/>
              <text value="Name der Versicherung"/>
              <answer>
                <valueString value="Sanitas"/>
              </answer>
            </item>
            <item>
              <linkId value="coverage.kvg.insuranceCardNumber"/>
              <text value="Kennnummer der Versichertenkarte"/>
              <answer>
                <valueString value="80756015090002647590"/>
              </answer>
            </item>
          </item>
        </item>
        <item>
          <linkId value="sender"/>
          <text value="Absender"/>
          <item>
            <linkId value="sender.author"/>
            <text value="Verantwortlicher"/>
            <item>
              <linkId value="sender.author.practitioner"/>
              <text value="Verantwortliche Person"/>
              <item>
                <linkId value="sender.author.practitioner.title"/>
                <text value="Titel"/>
                <answer>
                  <valueString value="Dr. med."/>
                </answer>
              </item>
              <item>
                <linkId value="sender.author.practitioner.familyName"/>
                <text value="Name"/>
                <answer>
                  <valueString value="Meier"/>
                </answer>
              </item>
              <item>
                <linkId value="sender.author.practitioner.givenName"/>
                <text value="Vorname"/>
                <answer>
                  <valueString value="Sabine"/>
                </answer>
              </item>
              <item>
                <linkId value="sender.author.practitioner.gln"/>
                <text value="GLN"/>
                <answer>
                  <valueString value="7601000034321"/>
                </answer>
              </item>
              <item>
                <linkId value="sender.author.practitioner.phone"/>
                <text value="Telefon"/>
                <answer>
                  <valueString value="044 333 22 11"/>
                </answer>
              </item>
              <item>
                <linkId value="sender.author.practitioner.email"/>
                <text value="E-Mail"/>
                <answer>
                  <valueString value="sabine.meier@praxisseeblick.ch"/>
                </answer>
              </item>
            </item>
            <item>
              <linkId value="sender.author.organization"/>
              <text value="Verantwortliche Organisation"/>
              <item>
                <linkId value="sender.author.organization.name"/>
                <text value="Name der Organisation"/>
                <answer>
                  <valueString value="Praxis Seeblick"/>
                </answer>
              </item>
              <item>
                <linkId value="sender.author.organization.streetAddressLine"/>
                <text value="Strasse, Hausnummer, Postfach etc."/>
                <answer>
                  <valueString value="Seestrasse 133"/>
                </answer>
                <answer>
                  <valueString value="Haus C"/>
                </answer>
              </item>
              <item>
                <linkId value="sender.author.organization.postalCode"/>
                <text value="PLZ"/>
                <answer>
                  <valueString value="8000"/>
                </answer>
              </item>
              <item>
                <linkId value="sender.author.organization.city"/>
                <text value="Ort"/>
                <answer>
                  <valueString value="Zürich"/>
                </answer>
              </item>
              <item>
                <linkId value="sender.author.organization.country"/>
                <text value="Land"/>
                <answer>
                  <valueString value="Schweiz"/>
                </answer>
              </item>
            </item>
          </item>
          <item>
            <linkId value="sender.dataenterer"/>
            <text value="Erfasser"/>
            <item>
              <linkId value="sender.dataenterer.practitioner"/>
              <text value="Erfassende Person"/>
              <item>
                <linkId value="sender.dataenterer.practitioner.familyName"/>
                <text value="Name"/>
                <answer>
                  <valueString value="Boss"/>
                </answer>
              </item>
              <item>
                <linkId value="sender.dataenterer.practitioner.givenName"/>
                <text value="Vorname"/>
                <answer>
                  <valueString value="Stabilo"/>
                </answer>
              </item>
              <item>
                <linkId value="sender.dataenterer.practitioner.phone"/>
                <text value="Telefon"/>
                <answer>
                  <valueString value="044 333 22 12"/>
                </answer>
              </item>
              <item>
                <linkId value="sender.dataenterer.practitioner.email"/>
                <text value="E-Mail"/>
                <answer>
                  <valueString value="stabilo.boss@praxisseeblick.ch"/>
                </answer>
              </item>
            </item>
          </item>
        </item>
        <item>
          <linkId value="receiverCopies"/>
          <text value="Kopieempfänger (Kopie dieses Auftrags und aller daraus resultierenden Resultate)"/>
          <item>
            <linkId value="receiverCopy"/>
            <text value="Kopieempfangende Organisation oder Person"/>
            <item>
              <linkId value="receiverCopy.organization.name"/>
              <text value="Name der Organisation"/>
              <answer>
                <valueString value="Praxis Seeblick"/>
              </answer>
            </item>
            <item>
              <linkId value="receiverCopy.title"/>
              <text value="Titel"/>
              <answer>
                <valueString value="Dr. med."/>
              </answer>
            </item>
            <item>
              <linkId value="receiverCopy.familyName"/>
              <text value="Name"/>
              <answer>
                <valueString value="Meier"/>
              </answer>
            </item>
            <item>
              <linkId value="receiverCopy.givenName"/>
              <text value="Vorname"/>
              <answer>
                <valueString value="Sabine"/>
              </answer>
            </item>
            <item>
              <linkId value="receiverCopy.phone"/>
              <text value="Telefon"/>
              <answer>
                <valueString value="044 333 22 11"/>
              </answer>
            </item>
            <item>
              <linkId value="receiverCopy.email"/>
              <text value="E-Mail"/>
              <answer>
                <valueString value="sabine.meier@praxisseeblick.ch"/>
              </answer>
            </item>
          </item>
          <item>
            <linkId value="receiverCopy"/>
            <text value="Kopieempfangende Organisation oder Person"/>
            <item>
              <linkId value="receiverCopy.familyName"/>
              <text value="Name"/>
              <answer>
                <valueString value="Musterfrau"/>
              </answer>
            </item>
            <item>
              <linkId value="receiverCopy.givenName"/>
              <text value="Vorname"/>
              <answer>
                <valueString value="Erika"/>
              </answer>
            </item>
            <item>
              <linkId value="receiverCopy.phone"/>
              <text value="Telefon"/>
              <answer>
                <valueString value="079 979 79 79"/>
              </answer>
            </item>
            <item>
              <linkId value="receiverCopy.email"/>
              <text value="E-Mail"/>
              <answer>
                <valueString value="erika@musterfrau.ch"/>
              </answer>
            </item>
            <item>
              <linkId value="receiverCopy.streetAddressLine"/>
              <text value="Strasse, Hausnummer, Postfach etc."/>
              <answer>
                <valueString value="Musterweg"/>
              </answer>
              <answer>
                <valueString value="6a"/>
              </answer>
            </item>
            <item>
              <linkId value="receiverCopy.postalCode"/>
              <text value="PLZ"/>
              <answer>
                <valueString value="8000"/>
              </answer>
            </item>
            <item>
              <linkId value="receiverCopy.city"/>
              <text value="Ort"/>
              <answer>
                <valueString value="Zürich"/>
              </answer>
            </item>
            <item>
              <linkId value="receiverCopy.country"/>
              <text value="Land"/>
              <answer>
                <valueString value="Schweiz"/>
              </answer>
            </item>
          </item>
        </item>
        <item>
          <linkId value="note"/>
          <text value="Bemerkungen"/>
          <item>
            <linkId value="note.text"/>
            <text value="Kommentar"/>
            <answer>
              <valueString value="Bemerkung/Kommentar"/>
            </answer>
          </item>
        </item>
      </QuestionnaireResponse>
    </resource>
  </entry>
  <entry>
    <fullUrl value="urn:uuid:3cf36568-0aba-45d3-96d0-1973a8362853"/>
    <resource>
      <ServiceRequest>
        <extension url="http://fhir.ch/ig/ch-orf/StructureDefinition/ch-orf-requestedencounterdetails">
          <valueReference>
            <reference value="urn:uuid:322dfa17-00d3-4f8e-aa66-8d52a3f316c1"/>
          </valueReference>
        </extension>
        <identifier>
          <type>
            <coding>
              <system value="http://terminology.hl7.org/CodeSystem/v2-0203"/>
              <code value="PLAC"/>
            </coding>
          </type>
          <system value="urn:oid:2.999.1.3.4.5.6.7"/>
          <value value="123"/>
        </identifier>
        <identifier>
          <type>
            <coding>
              <system value="http://terminology.hl7.org/CodeSystem/v2-0203"/>
              <code value="FILL"/>
            </coding>
          </type>
          <system value="urn:oid:2.999.7.8.9.10.11"/>
          <value value="456"/>
        </identifier>
        <status value="active"/>
        <intent value="order"/>
        <priority value="routine"/>
        <subject>
          <reference value="urn:uuid:f00720ca-4cee-4a33-9c72-ab8858d05c15"/>
        </subject>
        <requester>
          <reference value="urn:uuid:bbd52527-72f7-47ba-a330-0ebdfcebd2e0"/>
        </requester>
        <insurance>
          <reference value="urn:uuid:5718bcfc-818a-455c-839b-ee63ef0c295a"/>
        </insurance>
        <note>
          <text value="Bemerkung/Kommentar"/>
        </note>
      </ServiceRequest>
    </resource>
  </entry>
  <entry>
    <fullUrl value="urn:uuid:2bfb1c37-1fad-43ea-b354-f76b16873885"/>
    <resource>
      <Questionnaire>
        <meta>
          <profile value="http://fhir.ch/ig/ch-orf/StructureDefinition/ch-orf-questionnaire"/>
          <profile value="http://hl7.org/fhir/uv/sdc/StructureDefinition/sdc-questionnaire"/>
          <profile value="http://hl7.org/fhir/uv/sdc/StructureDefinition/sdc-questionnaire-extract"/>
          <profile value="http://hl7.org/fhir/uv/sdc/StructureDefinition/sdc-questionnaire-populate"/>
        </meta>
        <extension url="http://hl7.org/fhir/uv/sdc/StructureDefinition/sdc-questionnaire-targetStructureMap">
          <valueCanonical value="http://fhir.ch/ig/ch-orf/StructureMap/OrfQrToBundle"/>
        </extension>
        <extension url="http://hl7.org/fhir/uv/sdc/StructureDefinition/sdc-questionnaire-sourceStructureMap">
          <valueCanonical value="http://fhir.ch/ig/ch-orf/StructureMap/OrfPrepopBundleToQr"/>
        </extension>
        <extension url="http://hl7.org/fhir/uv/sdc/StructureDefinition/sdc-questionnaire-launchContext">
          <extension url="name">
            <valueId value="Bundle"/>
          </extension>
          <extension url="type">
            <valueCode value="Bundle"/>
          </extension>
          <extension url="description">
            <valueString value="The Bundle that is to be used to pre-populate the form"/>
          </extension>
        </extension>
        <url value="http://fhir.ch/ig/ch-orf/Questionnaire/order-referral-form"/>
        <name value="OrderReferralForm"/>
        <title value="Order-Referral-Form"/>
        <status value="active"/>
        <subjectType value="Patient"/>
        <date value="2021-03-26"/>
        <publisher value="HL7 Switzerland"/>
        <item>
          <linkId value="order"/>
          <definition value="http://fhir.ch/ig/ch-orf/StructureDefinition/ch-orf-document#Bundle"/>
          <text value="Auftrag"/>
          <type value="group"/>
          <required value="true"/>
          <item>
            <linkId value="order.placerOrderIdentifier"/>
            <definition value="http://fhir.ch/ig/ch-orf/StructureDefinition/ch-orf-servicerequest#ServiceRequest.identifier:placerOrderIdentifier.value"/>
            <text value="Auftragsnummer des Auftraggebers"/>
            <type value="string"/>
          </item>
          <item>
            <extension url="http://hl7.org/fhir/StructureDefinition/questionnaire-hidden">
              <valueBoolean value="true"/>
            </extension>
            <linkId value="order.placerOrderIdentifierDomain"/>
            <definition value="http://fhir.ch/ig/ch-orf/StructureDefinition/ch-orf-servicerequest#ServiceRequest.identifier:placerOrderIdentifier.system"/>
            <text value="Identifier Domain der Auftragsnummer des Auftraggebers"/>
            <type value="string"/>
          </item>
          <item>
            <linkId value="order.fillerOrderIdentifier"/>
            <definition value="http://fhir.ch/ig/ch-orf/StructureDefinition/ch-orf-servicerequest#ServiceRequest.identifier:fillerOrderIdentifier.value"/>
            <text value="Auftragsnummer des Auftragsempfängers"/>
            <type value="string"/>
          </item>
          <item>
            <extension url="http://hl7.org/fhir/StructureDefinition/questionnaire-hidden">
              <valueBoolean value="true"/>
            </extension>
            <linkId value="order.fillerOrderIdentifierDomain"/>
            <definition value="http://fhir.ch/ig/ch-orf/StructureDefinition/ch-orf-servicerequest#ServiceRequest.identifier:fillerOrderIdentifier.system"/>
            <text value="Identifier Domain der Auftragsnummer des Auftragsempfängers"/>
            <type value="string"/>
          </item>
          <item>
            <extension url="http://hl7.org/fhir/StructureDefinition/questionnaire-hidden">
              <valueBoolean value="true"/>
            </extension>
            <linkId value="order.precedentDocumentIdentifier"/>
            <definition value="http://fhir.ch/ig/ch-orf/StructureDefinition/ch-orf-composition#Composition.extension:precedentDocument"/>
            <text value="Identifier des Vorgängerdokuments"/>
            <type value="string"/>
          </item>
          <item>
            <linkId value="order.notificationContactDocument"/>
            <definition value="http://fhir.ch/ig/ch-orf/StructureDefinition/ch-orf-composition#Composition.extension:urgentNoficationContactForThisDocument"/>
            <text value="Dringender Benachrichtigungskontakt für dieses Dokument"/>
            <type value="group"/>
            <item>
              <linkId value="order.notificationContactDocument.practitioner"/>
              <definition value="http://fhir.ch/ig/ch-core/StructureDefinition/ch-core-practitionerrole#PractitionerRole.practitioner"/>
              <text value="Zu benachrichtigende Person"/>
              <type value="group"/>
              <item>
                <linkId value="order.notificationContactDocument.practitioner.title"/>
                <definition value="http://fhir.ch/ig/ch-core/StructureDefinition/ch-core-practitioner#Practitioner.name.prefix"/>
                <text value="Titel"/>
                <type value="string"/>
              </item>
              <item>
                <linkId value="order.notificationContactDocument.practitioner.familyName"/>
                <definition value="http://fhir.ch/ig/ch-core/StructureDefinition/ch-core-practitioner#Practitioner.name.family"/>
                <text value="Name"/>
                <type value="string"/>
              </item>
              <item>
                <linkId value="order.notificationContactDocument.practitioner.givenName"/>
                <definition value="http://fhir.ch/ig/ch-core/StructureDefinition/ch-core-practitioner#Practitioner.name.given"/>
                <text value="Vorname"/>
                <type value="string"/>
              </item>
              <item>
                <linkId value="order.notificationContactDocument.practitioner.phone"/>
                <definition value="http://fhir.ch/ig/ch-core/StructureDefinition/ch-core-practitioner#Practitioner.telecom.value"/>
                <text value="Telefon"/>
                <type value="string"/>
              </item>
              <item>
                <linkId value="order.notificationContactDocument.practitioner.email"/>
                <definition value="http://fhir.ch/ig/ch-core/StructureDefinition/ch-core-practitioner#Practitioner.telecom.value"/>
                <text value="E-Mail"/>
                <type value="string"/>
              </item>
            </item>
          </item>
          <item>
            <linkId value="order.notificationContactDocumentResponse"/>
            <definition value="http://fhir.ch/ig/ch-orf/StructureDefinition/ch-orf-composition#Composition.extension:urgentNoficationContactForTheResponseToThisDocument"/>
            <text value="Dringender Benachrichtigungskontakt für die Antwort auf dieses Dokument"/>
            <type value="group"/>
            <item>
              <linkId value="order.notificationContactDocumentResponse.practitioner"/>
              <definition value="http://fhir.ch/ig/ch-core/StructureDefinition/ch-core-practitionerrole#PractitionerRole.practitioner"/>
              <text value="Zu benachrichtigende Person"/>
              <type value="group"/>
              <item>
                <linkId value="order.notificationContactDocumentResponse.practitioner.title"/>
                <definition value="http://fhir.ch/ig/ch-core/StructureDefinition/ch-core-practitioner#Practitioner.name.prefix"/>
                <text value="Titel"/>
                <type value="string"/>
              </item>
              <item>
                <linkId value="order.notificationContactDocumentResponse.practitioner.familyName"/>
                <definition value="http://fhir.ch/ig/ch-core/StructureDefinition/ch-core-practitioner#Practitioner.name.family"/>
                <text value="Name"/>
                <type value="string"/>
              </item>
              <item>
                <linkId value="order.notificationContactDocumentResponse.practitioner.givenName"/>
                <definition value="http://fhir.ch/ig/ch-core/StructureDefinition/ch-core-practitioner#Practitioner.name.given"/>
                <text value="Vorname"/>
                <type value="string"/>
              </item>
              <item>
                <linkId value="order.notificationContactDocumentResponse.practitioner.phone"/>
                <definition value="http://fhir.ch/ig/ch-core/StructureDefinition/ch-core-practitioner#Practitioner.telecom.value"/>
                <text value="Telefon"/>
                <type value="string"/>
              </item>
              <item>
                <linkId value="order.notificationContactDocumentResponse.practitioner.email"/>
                <definition value="http://fhir.ch/ig/ch-core/StructureDefinition/ch-core-practitioner#Practitioner.telecom.value"/>
                <text value="E-Mail"/>
                <type value="string"/>
              </item>
            </item>
          </item>
          <item>
            <linkId value="order.priority"/>
            <definition value="http://fhir.ch/ig/ch-orf/StructureDefinition/ch-orf-servicerequest#ServiceRequest.priority"/>
            <text value="Auftragspriorität"/>
            <type value="choice"/>
            <answerOption>
              <valueCoding>
                <system value="http://hl7.org/fhir/request-priority"/>
                <code value="routine"/>
                <display value="Die Anfrage hat normale Priorität."/>
              </valueCoding>
              <initialSelected value="true"/>
            </answerOption>
            <answerOption>
              <valueCoding>
                <system value="http://hl7.org/fhir/request-priority"/>
                <code value="urgent"/>
                <display value="Die Anfrage sollte dringend bearbeitet werden - höhere Priorität als normal."/>
              </valueCoding>
            </answerOption>
            <answerOption>
              <valueCoding>
                <system value="http://hl7.org/fhir/request-priority"/>
                <code value="asap"/>
                <display value="Die Anfrage sollte so schnell wie möglich bearbeitet werden - höhere Priorität als dringend."/>
              </valueCoding>
            </answerOption>
            <answerOption>
              <valueCoding>
                <system value="http://hl7.org/fhir/request-priority"/>
                <code value="stat"/>
                <display value="Die Anfrage sollte sofort bearbeitet werden - höchstmögliche Priorität. Z.B. bei einem Notfall."/>
              </valueCoding>
            </answerOption>
          </item>
        </item>
        <item>
          <linkId value="receiver"/>
          <definition value="http://fhir.ch/ig/ch-orf/StructureDefinition/ch-orf-composition#Composition.extension:receiver"/>
          <text value="Empfänger"/>
          <type value="group"/>
          <item>
            <linkId value="receiver.practitioner"/>
            <definition value="http://fhir.ch/ig/ch-core/StructureDefinition/ch-core-practitionerrole#PractitionerRole.practitioner"/>
            <text value="Empfangende Person"/>
            <type value="group"/>
            <item>
              <linkId value="receiver.practitioner.title"/>
              <definition value="http://fhir.ch/ig/ch-core/StructureDefinition/ch-core-practitioner#Practitioner.name.prefix"/>
              <text value="Titel"/>
              <type value="string"/>
            </item>
            <item>
              <linkId value="receiver.practitioner.familyName"/>
              <definition value="http://fhir.ch/ig/ch-core/StructureDefinition/ch-core-practitioner#Practitioner.name.family"/>
              <text value="Name"/>
              <type value="string"/>
            </item>
            <item>
              <linkId value="receiver.practitioner.givenName"/>
              <definition value="http://fhir.ch/ig/ch-core/StructureDefinition/ch-core-practitioner#Practitioner.name.given"/>
              <text value="Vorname"/>
              <type value="string"/>
            </item>
            <item>
              <linkId value="receiver.practitioner.gln"/>
              <definition value="http://fhir.ch/ig/ch-core/StructureDefinition/ch-core-practitioner#Practitioner.identifier:GLN.value"/>
              <text value="GLN"/>
              <type value="string"/>
            </item>
            <item>
              <linkId value="receiver.practitioner.phone"/>
              <definition value="http://fhir.ch/ig/ch-core/StructureDefinition/ch-core-practitioner#Practitioner.telecom.value"/>
              <text value="Telefon"/>
              <type value="string"/>
            </item>
            <item>
              <linkId value="receiver.practitioner.email"/>
              <definition value="http://fhir.ch/ig/ch-core/StructureDefinition/ch-core-practitioner#Practitioner.telecom.value"/>
              <text value="E-Mail"/>
              <type value="string"/>
            </item>
          </item>
          <item>
            <linkId value="receiver.organization"/>
            <definition value="http://fhir.ch/ig/ch-core/StructureDefinition/ch-core-practitionerrole#PractitionerRole.organization"/>
            <text value="Empfangende Organisation"/>
            <type value="group"/>
            <item>
              <linkId value="receiver.organization.name"/>
              <definition value="http://fhir.ch/ig/ch-core/StructureDefinition/ch-core-organization#Organization.name"/>
              <text value="Name der Organisation"/>
              <type value="string"/>
            </item>
            <item>
              <linkId value="receiver.organization.streetAddressLine"/>
              <definition value="http://fhir.ch/ig/ch-core/StructureDefinition/ch-core-organization#Organization.address.line"/>
              <text value="Strasse, Hausnummer, Postfach etc."/>
              <type value="string"/>
              <repeats value="true"/>
            </item>
            <item>
              <linkId value="receiver.organization.postalCode"/>
              <definition value="http://fhir.ch/ig/ch-core/StructureDefinition/ch-core-organization#Organization.address.postalCode"/>
              <text value="PLZ"/>
              <type value="string"/>
            </item>
            <item>
              <linkId value="receiver.organization.city"/>
              <definition value="http://fhir.ch/ig/ch-core/StructureDefinition/ch-core-organization#Organization.address.city"/>
              <text value="Ort"/>
              <type value="string"/>
            </item>
            <item>
              <linkId value="receiver.organization.country"/>
              <definition value="http://fhir.ch/ig/ch-core/StructureDefinition/ch-core-organization#Organization.address.country"/>
              <text value="Land"/>
              <type value="string"/>
            </item>
          </item>
        </item>
        <item>
          <linkId value="patient"/>
          <definition value="http://fhir.ch/ig/ch-orf/StructureDefinition/ch-orf-composition#Composition.subject"/>
          <text value="Patient"/>
          <type value="group"/>
          <item>
            <linkId value="patient.familyName"/>
            <definition value="http://fhir.ch/ig/ch-core/StructureDefinition/ch-core-patient#Patient.name.family"/>
            <text value="Name"/>
            <type value="string"/>
          </item>
          <item>
            <linkId value="patient.maidenName"/>
            <definition value="http://fhir.ch/ig/ch-core/StructureDefinition/ch-core-patient#Patient.name.family"/>
            <text value="Ledigname"/>
            <type value="string"/>
          </item>
          <item>
            <linkId value="patient.givenName"/>
            <definition value="http://fhir.ch/ig/ch-core/StructureDefinition/ch-core-patient#Patient.name.given"/>
            <text value="Vorname"/>
            <type value="string"/>
          </item>
          <item>
            <linkId value="patient.localPid"/>
            <definition value="http://fhir.ch/ig/ch-core/StructureDefinition/ch-core-patient#Patient.identifier:LocalPid.value"/>
            <text value="Lokale Patienten-ID"/>
            <type value="string"/>
          </item>
          <item>
            <extension url="http://hl7.org/fhir/StructureDefinition/questionnaire-hidden">
              <valueBoolean value="true"/>
            </extension>
            <linkId value="patient.localPidDomain"/>
            <definition value="http://fhir.ch/ig/ch-core/StructureDefinition/ch-core-patient#Patient.identifier:LocalPid.system"/>
            <text value="Lokale Patienten-ID Domain"/>
            <type value="string"/>
          </item>
          <item>
            <linkId value="patient.birthDate"/>
            <definition value="http://fhir.ch/ig/ch-core/StructureDefinition/ch-core-patient#Patient.birthDate"/>
            <text value="Geburtsdatum"/>
            <type value="date"/>
          </item>
          <item>
            <linkId value="patient.gender"/>
            <definition value="http://fhir.ch/ig/ch-core/StructureDefinition/ch-core-patient#Patient.gender"/>
            <text value="Geschlecht"/>
            <type value="choice"/>
            <answerOption>
              <valueCoding>
                <system value="http://hl7.org/fhir/administrative-gender"/>
                <code value="male"/>
                <display value="Männlich"/>
              </valueCoding>
              <initialSelected value="true"/>
            </answerOption>
            <answerOption>
              <valueCoding>
                <system value="http://hl7.org/fhir/administrative-gender"/>
                <code value="female"/>
                <display value="Weiblich"/>
              </valueCoding>
            </answerOption>
            <answerOption>
              <valueCoding>
                <system value="http://hl7.org/fhir/administrative-gender"/>
                <code value="other"/>
                <display value="Anderes"/>
              </valueCoding>
            </answerOption>
          </item>
          <item>
            <linkId value="patient.phone"/>
            <definition value="http://fhir.ch/ig/ch-core/StructureDefinition/ch-core-patient#Patient.telecom.value"/>
            <text value="Telefon"/>
            <type value="string"/>
            <repeats value="true"/>
          </item>
          <item>
            <linkId value="patient.email"/>
            <definition value="http://fhir.ch/ig/ch-core/StructureDefinition/ch-core-patient#Patient.telecom.value"/>
            <text value="E-Mail"/>
            <type value="string"/>
          </item>
          <item>
            <linkId value="patient.streetAddressLine"/>
            <definition value="http://fhir.ch/ig/ch-core/StructureDefinition/ch-core-patient#Patient.address.line"/>
            <text value="Strasse, Hausnummer, Postfach etc."/>
            <type value="string"/>
            <repeats value="true"/>
          </item>
          <item>
            <linkId value="patient.postalCode"/>
            <definition value="http://fhir.ch/ig/ch-core/StructureDefinition/ch-core-patient#Patient.address.postalCode"/>
            <text value="PLZ"/>
            <type value="string"/>
          </item>
          <item>
            <linkId value="patient.city"/>
            <definition value="http://fhir.ch/ig/ch-core/StructureDefinition/ch-core-patient#Patient.address.city"/>
            <text value="Ort"/>
            <type value="string"/>
          </item>
          <item>
            <linkId value="patient.country"/>
            <definition value="http://fhir.ch/ig/ch-core/StructureDefinition/ch-core-patient#Patient.address.country"/>
            <text value="Land"/>
            <type value="string"/>
          </item>
          <item>
            <linkId value="patient.contactperson"/>
            <definition value="http://fhir.ch/ig/ch-core/StructureDefinition/ch-core-patient#Patient.contact"/>
            <text value="Kontaktperson"/>
            <type value="group"/>
            <item>
              <linkId value="patient.contactperson.relationship"/>
              <definition value="http://fhir.ch/ig/ch-core/StructureDefinition/ch-core-patient#Patient.contact.relationship.text"/>
              <text value="Beziehung"/>
              <type value="string"/>
            </item>
            <item>
              <linkId value="patient.contactperson.familyName"/>
              <definition value="http://fhir.ch/ig/ch-core/StructureDefinition/ch-core-patient#Patient.contact.name.family"/>
              <text value="Name"/>
              <type value="string"/>
            </item>
            <item>
              <linkId value="patient.contactperson.givenName"/>
              <definition value="http://fhir.ch/ig/ch-core/StructureDefinition/ch-core-patient#Patient.contact.name.given"/>
              <text value="Vorname"/>
              <type value="string"/>
            </item>
            <item>
              <linkId value="patient.contactperson.phone"/>
              <definition value="http://fhir.ch/ig/ch-core/StructureDefinition/ch-core-patient#Patient.contact.telecom.value"/>
              <text value="Telefon"/>
              <type value="string"/>
              <repeats value="true"/>
            </item>
            <item>
              <linkId value="patient.contactperson.email"/>
              <definition value="http://fhir.ch/ig/ch-core/StructureDefinition/ch-core-patient#Patient.contact.telecom.value"/>
              <text value="E-Mail"/>
              <type value="string"/>
            </item>
          </item>
        </item>
        <item>
          <linkId value="requestedEncounter"/>
          <definition value="http://fhir.ch/ig/ch-orf/StructureDefinition/ch-orf-servicerequest#ServiceRequest.extension:requestedEncounterDetails"/>
          <text value="Patientenaufnahme"/>
          <type value="group"/>
          <item>
            <linkId value="requestedEncounter.class"/>
            <definition value="http://fhir.ch/ig/ch-orf/StructureDefinition/ch-orf-encounter#Encounter.class"/>
            <text value="Voraussichtlich: Ambulant / Stationär / Notfall"/>
            <type value="choice"/>
            <answerOption>
              <valueCoding>
                <system value="http://terminology.hl7.org/CodeSystem/v3-ActCode"/>
                <code value="AMB"/>
                <display value="Ambulant"/>
              </valueCoding>
            </answerOption>
            <answerOption>
              <valueCoding>
                <system value="http://terminology.hl7.org/CodeSystem/v3-ActCode"/>
                <code value="IMP"/>
                <display value="Stationär"/>
              </valueCoding>
            </answerOption>
            <answerOption>
              <valueCoding>
                <system value="http://terminology.hl7.org/CodeSystem/v3-ActCode"/>
                <code value="EMER"/>
                <display value="Notfall"/>
              </valueCoding>
            </answerOption>
          </item>
          <item>
            <linkId value="requestedEncounter.desiredAccommodation"/>
            <definition value="http://fhir.ch/ig/ch-orf/StructureDefinition/ch-orf-encounter#Encounter.extension:desiredAccommodation"/>
            <text value="Zimmerkategorie"/>
            <type value="choice"/>
            <answerOption>
              <valueCoding>
                <system value="http://terminology.hl7.org/CodeSystem/v3-ActCode"/>
                <code value="P"/>
                <display value="Einerzimmer"/>
              </valueCoding>
            </answerOption>
            <answerOption>
              <valueCoding>
                <system value="http://terminology.hl7.org/CodeSystem/v3-ActCode"/>
                <code value="SP"/>
                <display value="Zweierzimmer"/>
              </valueCoding>
            </answerOption>
            <answerOption>
              <valueCoding>
                <system value="http://terminology.hl7.org/CodeSystem/v3-ActCode"/>
                <code value="W"/>
                <display value="Mehrbettzimmer"/>
              </valueCoding>
            </answerOption>
          </item>
        </item>
        <item>
          <linkId value="coverage"/>
          <definition value="http://fhir.ch/ig/ch-orf/StructureDefinition/ch-orf-servicerequest#ServiceRequest.insurance"/>
          <text value="Kostenträger"/>
          <type value="group"/>
          <item>
            <linkId value="coverage.beneficiary"/>
            <definition value="http://fhir.ch/ig/ch-orf/StructureDefinition/ch-orf-coverage#Coverage.beneficiary"/>
            <text value="Begünstigter (Patient)"/>
            <type value="group"/>
            <item>
              <linkId value="coverage.beneficiary.ahvn13"/>
              <definition value="http://fhir.ch/ig/ch-core/StructureDefinition/ch-core-patient#Patient.identifier:AHVN13"/>
              <text value="AHV-Nr. des Patienten"/>
              <type value="string"/>
            </item>
          </item>
          <item>
            <linkId value="coverage.kvg"/>
            <definition value="http://fhir.ch/ig/ch-orf/StructureDefinition/ch-orf-coverage#Coverage.type"/>
            <text value="Krankenkasse (nach KVG)"/>
            <type value="group"/>
            <item>
              <linkId value="coverage.kvg.name"/>
              <definition value="http://fhir.ch/ig/ch-orf/StructureDefinition/ch-orf-coverage#Coverage.payor"/>
              <text value="Name der Versicherung"/>
              <type value="string"/>
            </item>
            <item>
              <linkId value="coverage.kvg.insuranceCardNumber"/>
              <definition value="http://fhir.ch/ig/ch-orf/StructureDefinition/ch-orf-coverage#Coverage.identifier"/>
              <text value="Kennnummer der Versichertenkarte"/>
              <type value="string"/>
            </item>
          </item>
          <item>
            <linkId value="coverage.uvg"/>
            <definition value="http://fhir.ch/ig/ch-orf/StructureDefinition/ch-orf-coverage#Coverage.type"/>
            <text value="Unfallversicherung (nach UVG)"/>
            <type value="group"/>
            <item>
              <linkId value="coverage.uvg.name"/>
              <definition value="http://fhir.ch/ig/ch-orf/StructureDefinition/ch-orf-coverage#Coverage.payor"/>
              <text value="Name der Versicherung"/>
              <type value="string"/>
            </item>
            <item>
              <linkId value="coverage.uvg.claimNumber"/>
              <definition value="http://fhir.ch/ig/ch-orf/StructureDefinition/ch-orf-coverage#Coverage.identifier"/>
              <text value="Schadennummer"/>
              <type value="string"/>
            </item>
          </item>
          <item>
            <linkId value="coverage.vvg"/>
            <definition value="http://fhir.ch/ig/ch-orf/StructureDefinition/ch-orf-coverage#Coverage.type"/>
            <text value="Zusatzversicherung (nach VVG)"/>
            <type value="group"/>
            <item>
              <linkId value="coverage.vvg.name"/>
              <definition value="http://fhir.ch/ig/ch-orf/StructureDefinition/ch-orf-coverage#Coverage.payor"/>
              <text value="Name der Versicherung"/>
              <type value="string"/>
            </item>
            <item>
              <linkId value="coverage.vvg.insuranceCardNumber"/>
              <definition value="http://fhir.ch/ig/ch-orf/StructureDefinition/ch-orf-coverage#Coverage.identifier"/>
              <text value="Kennnummer der Versichertenkarte"/>
              <type value="string"/>
            </item>
          </item>
          <item>
            <linkId value="coverage.iv"/>
            <definition value="http://fhir.ch/ig/ch-orf/StructureDefinition/ch-orf-coverage#Coverage.type"/>
            <text value="Invalidenversicherung (IV)"/>
            <type value="group"/>
            <item>
              <linkId value="coverage.iv.verfuegungsnummer"/>
              <definition value="http://fhir.ch/ig/ch-orf/StructureDefinition/ch-orf-coverage#Coverage.identifier"/>
              <text value="IV-Verfügungsnummer"/>
              <type value="string"/>
            </item>
          </item>
          <item>
            <linkId value="coverage.mv"/>
            <definition value="http://fhir.ch/ig/ch-orf/StructureDefinition/ch-orf-coverage#Coverage.type"/>
            <text value="Militärversicherung (MV)"/>
            <type value="group"/>
            <item>
              <linkId value="coverage.mv.versichertennummer"/>
              <definition value="http://fhir.ch/ig/ch-orf/StructureDefinition/ch-orf-coverage#Coverage.identifier"/>
              <text value="MV-Versichertennummer"/>
              <type value="string"/>
            </item>
          </item>
          <item>
            <linkId value="coverage.self"/>
            <definition value="http://fhir.ch/ig/ch-orf/StructureDefinition/ch-orf-coverage#Coverage.type"/>
            <text value="Selbstzahler"/>
            <type value="group"/>
            <item>
              <linkId value="coverage.self.familyName"/>
              <definition value="http://fhir.ch/ig/ch-orf/StructureDefinition/ch-orf-coverage#Coverage.payor"/>
              <text value="Name"/>
              <type value="string"/>
            </item>
            <item>
              <linkId value="coverage.self.givenName"/>
              <definition value="http://fhir.ch/ig/ch-orf/StructureDefinition/ch-orf-coverage#Coverage.payor"/>
              <text value="Vorname"/>
              <type value="string"/>
            </item>
          </item>
          <item>
            <linkId value="coverage.other"/>
            <definition value="http://fhir.ch/ig/ch-orf/StructureDefinition/ch-orf-coverage#Coverage.type"/>
            <text value="Anderer Kostenträger"/>
            <type value="group"/>
            <item>
              <linkId value="coverage.other.name"/>
              <definition value="http://fhir.ch/ig/ch-orf/StructureDefinition/ch-orf-coverage#Coverage.payor"/>
              <text value="Name des Kostenträgers"/>
              <type value="string"/>
            </item>
            <item>
              <linkId value="coverage.other.id"/>
              <definition value="http://fhir.ch/ig/ch-orf/StructureDefinition/ch-orf-coverage#Coverage.identifier"/>
              <text value="Beliebige ID"/>
              <type value="string"/>
            </item>
            <item>
              <linkId value="coverage.other.id.note"/>
              <definition value="http://fhir.ch/ig/ch-orf/StructureDefinition/ch-orf-coverage#Coverage.identifier.type.text"/>
              <text value="Bemerkung zur ID"/>
              <type value="string"/>
            </item>
          </item>
        </item>
        <item>
          <linkId value="sender"/>
          <text value="Absender"/>
          <type value="group"/>
          <required value="true"/>
          <item>
            <linkId value="sender.author"/>
            <definition value="http://fhir.ch/ig/ch-orf/StructureDefinition/ch-orf-composition#Composition.author"/>
            <text value="Verantwortlicher"/>
            <type value="group"/>
            <required value="true"/>
            <item>
              <linkId value="sender.author.practitioner"/>
              <definition value="http://fhir.ch/ig/ch-core/StructureDefinition/ch-core-practitionerrole#PractitionerRole.practitioner"/>
              <text value="Verantwortliche Person"/>
              <type value="group"/>
              <item>
                <linkId value="sender.author.practitioner.title"/>
                <definition value="http://fhir.ch/ig/ch-core/StructureDefinition/ch-core-practitioner#Practitioner.name.prefix"/>
                <text value="Titel"/>
                <type value="string"/>
              </item>
              <item>
                <linkId value="sender.author.practitioner.familyName"/>
                <definition value="http://fhir.ch/ig/ch-core/StructureDefinition/ch-core-practitioner#Practitioner.name.family"/>
                <text value="Name"/>
                <type value="string"/>
              </item>
              <item>
                <linkId value="sender.author.practitioner.givenName"/>
                <definition value="http://fhir.ch/ig/ch-core/StructureDefinition/ch-core-practitioner#Practitioner.name.given"/>
                <text value="Vorname"/>
                <type value="string"/>
              </item>
              <item>
                <linkId value="sender.author.practitioner.gln"/>
                <definition value="http://fhir.ch/ig/ch-core/StructureDefinition/ch-core-practitioner#Practitioner.identifier:GLN.value"/>
                <text value="GLN"/>
                <type value="string"/>
              </item>
              <item>
                <linkId value="sender.author.practitioner.phone"/>
                <definition value="http://fhir.ch/ig/ch-core/StructureDefinition/ch-core-practitioner#Practitioner.telecom.value"/>
                <text value="Telefon"/>
                <type value="string"/>
              </item>
              <item>
                <linkId value="sender.author.practitioner.email"/>
                <definition value="http://fhir.ch/ig/ch-core/StructureDefinition/ch-core-practitioner#Practitioner.telecom.value"/>
                <text value="E-Mail"/>
                <type value="string"/>
              </item>
            </item>
            <item>
              <linkId value="sender.author.organization"/>
              <definition value="http://fhir.ch/ig/ch-core/StructureDefinition/ch-core-practitionerrole#PractitionerRole.organization"/>
              <text value="Verantwortliche Organisation"/>
              <type value="group"/>
              <item>
                <linkId value="sender.author.organization.name"/>
                <definition value="http://fhir.ch/ig/ch-core/StructureDefinition/ch-core-organization#Organization.name"/>
                <text value="Name der Organisation"/>
                <type value="string"/>
              </item>
              <item>
                <linkId value="sender.author.organization.streetAddressLine"/>
                <definition value="http://fhir.ch/ig/ch-core/StructureDefinition/ch-core-organization#Organization.address.line"/>
                <text value="Strasse, Hausnummer, Postfach etc."/>
                <type value="string"/>
                <repeats value="true"/>
              </item>
              <item>
                <linkId value="sender.author.organization.postalCode"/>
                <definition value="http://fhir.ch/ig/ch-core/StructureDefinition/ch-core-organization#Organization.address.postalCode"/>
                <text value="PLZ"/>
                <type value="string"/>
              </item>
              <item>
                <linkId value="sender.author.organization.city"/>
                <definition value="http://fhir.ch/ig/ch-core/StructureDefinition/ch-core-organization#Organization.address.city"/>
                <text value="Ort"/>
                <type value="string"/>
              </item>
              <item>
                <linkId value="sender.author.organization.country"/>
                <definition value="http://fhir.ch/ig/ch-core/StructureDefinition/ch-core-organization#Organization.address.country"/>
                <text value="Land"/>
                <type value="string"/>
              </item>
            </item>
          </item>
          <item>
            <linkId value="sender.dataenterer"/>
            <definition value="http://fhir.ch/ig/ch-orf/StructureDefinition/ch-orf-composition#Composition.extension:dataEnterer"/>
            <text value="Erfasser"/>
            <type value="group"/>
            <item>
              <linkId value="sender.dataenterer.practitioner"/>
              <definition value="http://fhir.ch/ig/ch-core/StructureDefinition/ch-core-practitionerrole#PractitionerRole.practitioner"/>
              <text value="Erfassende Person"/>
              <type value="group"/>
              <item>
                <linkId value="sender.dataenterer.practitioner.familyName"/>
                <definition value="http://fhir.ch/ig/ch-core/StructureDefinition/ch-core-practitioner#Practitioner.name.family"/>
                <text value="Name"/>
                <type value="string"/>
              </item>
              <item>
                <linkId value="sender.dataenterer.practitioner.givenName"/>
                <definition value="http://fhir.ch/ig/ch-core/StructureDefinition/ch-core-practitioner#Practitioner.name.given"/>
                <text value="Vorname"/>
                <type value="string"/>
              </item>
              <item>
                <linkId value="sender.dataenterer.practitioner.phone"/>
                <definition value="http://fhir.ch/ig/ch-core/StructureDefinition/ch-core-practitioner#Practitioner.telecom.value"/>
                <text value="Telefon"/>
                <type value="string"/>
              </item>
              <item>
                <linkId value="sender.dataenterer.practitioner.email"/>
                <definition value="http://fhir.ch/ig/ch-core/StructureDefinition/ch-core-practitioner#Practitioner.telecom.value"/>
                <text value="E-Mail"/>
                <type value="string"/>
              </item>
            </item>
          </item>
        </item>
        <item>
          <linkId value="receiverCopies"/>
          <definition value="http://fhir.ch/ig/ch-orf/StructureDefinition/ch-orf-composition#Composition.extension:copyReceiver"/>
          <text value="Kopieempfänger (Kopie dieses Auftrags und aller daraus resultierenden Resultate)"/>
          <type value="group"/>
          <item>
            <linkId value="receiverCopy"/>
            <text value="Kopieempfangende Organisation oder Person"/>
            <type value="group"/>
            <repeats value="true"/>
            <item>
              <linkId value="receiverCopy.organization.name"/>
              <definition value="http://fhir.ch/ig/ch-core/StructureDefinition/ch-core-organization#Organization.name"/>
              <text value="Name der Organisation"/>
              <type value="string"/>
            </item>
            <item>
              <linkId value="receiverCopy.title"/>
              <definition value="http://fhir.ch/ig/ch-core/StructureDefinition/ch-core-humanname#HumanName.prefix"/>
              <text value="Titel"/>
              <type value="string"/>
            </item>
            <item>
              <linkId value="receiverCopy.familyName"/>
              <definition value="http://fhir.ch/ig/ch-core/StructureDefinition/ch-core-humanname#HumanName.family"/>
              <text value="Name"/>
              <type value="string"/>
            </item>
            <item>
              <linkId value="receiverCopy.givenName"/>
              <definition value="http://fhir.ch/ig/ch-core/StructureDefinition/ch-core-humanname#HumanName.given"/>
              <text value="Vorname"/>
              <type value="string"/>
            </item>
            <item>
              <linkId value="receiverCopy.phone"/>
              <definition value="http://hl7.org/fhir/StructureDefinition/ContactPoint#ContactPoint.value"/>
              <text value="Telefon"/>
              <type value="string"/>
            </item>
            <item>
              <linkId value="receiverCopy.email"/>
              <definition value="http://hl7.org/fhir/StructureDefinition/ContactPoint#ContactPoint.value"/>
              <text value="E-Mail"/>
              <type value="string"/>
            </item>
            <item>
              <linkId value="receiverCopy.streetAddressLine"/>
              <definition value="http://fhir.ch/ig/ch-core/StructureDefinition/ch-core-address#Address.line"/>
              <text value="Strasse, Hausnummer, Postfach etc."/>
              <type value="string"/>
              <repeats value="true"/>
            </item>
            <item>
              <linkId value="receiverCopy.postalCode"/>
              <definition value="http://fhir.ch/ig/ch-core/StructureDefinition/ch-core-address#Address.postalCode"/>
              <text value="PLZ"/>
              <type value="string"/>
            </item>
            <item>
              <linkId value="receiverCopy.city"/>
              <definition value="http://fhir.ch/ig/ch-core/StructureDefinition/ch-core-address#Address.city"/>
              <text value="Ort"/>
              <type value="string"/>
            </item>
            <item>
              <linkId value="receiverCopy.country"/>
              <definition value="http://fhir.ch/ig/ch-core/StructureDefinition/ch-core-address#Address.country"/>
              <text value="Land"/>
              <type value="string"/>
            </item>
          </item>
        </item>
        <item>
          <linkId value="appointment"/>
          <definition value="http://fhir.ch/ig/ch-orf/StructureDefinition/ch-orf-servicerequest#ServiceRequest.extension:locationAndTime"/>
          <text value="Ort und Zeit der Durchführung der angeforderten Leistung"/>
          <type value="group"/>
          <repeats value="true"/>
          <item>
            <linkId value="appointment.location"/>
            <definition value="http://fhir.ch/ig/ch-orf/StructureDefinition/ch-orf-appointment#Appointment.participant.actor"/>
            <text value="Ort der Durchführung"/>
            <type value="group"/>
            <required value="true"/>
            <item>
              <linkId value="appointment.location.name"/>
              <definition value="http://fhir.ch/ig/ch-orf/StructureDefinition/ch-orf-location#Location.name"/>
              <text value="Name"/>
              <type value="string"/>
              <required value="true"/>
            </item>
            <item>
              <linkId value="appointment.location.phone"/>
              <definition value="http://fhir.ch/ig/ch-orf/StructureDefinition/ch-orf-location#Location.telecom.value"/>
              <text value="Telefon"/>
              <type value="string"/>
            </item>
            <item>
              <linkId value="appointment.location.email"/>
              <definition value="http://fhir.ch/ig/ch-orf/StructureDefinition/ch-orf-location#Location.telecom.value"/>
              <text value="E-Mail"/>
              <type value="string"/>
            </item>
            <item>
              <linkId value="appointment.location.streetAddressLine"/>
              <definition value="http://fhir.ch/ig/ch-orf/StructureDefinition/ch-orf-location#Location.address.line"/>
              <text value="Strasse, Hausnummer, Postfach etc."/>
              <type value="string"/>
              <repeats value="true"/>
            </item>
            <item>
              <linkId value="appointment.location.postalCode"/>
              <definition value="http://fhir.ch/ig/ch-orf/StructureDefinition/ch-orf-location#Location.address.postalCode"/>
              <text value="PLZ"/>
              <type value="string"/>
            </item>
            <item>
              <linkId value="appointment.location.city"/>
              <definition value="http://fhir.ch/ig/ch-orf/StructureDefinition/ch-orf-location#Location.address.city"/>
              <text value="Ort"/>
              <type value="string"/>
            </item>
            <item>
              <linkId value="appointment.location.country"/>
              <definition value="http://fhir.ch/ig/ch-orf/StructureDefinition/ch-orf-location#Location.address.country"/>
              <text value="Land"/>
              <type value="string"/>
            </item>
          </item>
          <item>
            <linkId value="appointment.requestedPeriod"/>
            <definition value="http://fhir.ch/ig/ch-orf/StructureDefinition/ch-orf-appointment#Appointment.requestedPeriod"/>
            <text value="Datum und Zeit, wann der Termin bevorzugt geplant werden soll"/>
            <type value="group"/>
            <item>
              <linkId value="appointment.requestedPeriod.start"/>
              <definition value="http://fhir.ch/ig/ch-orf/StructureDefinition/ch-orf-appointment#Appointment.requestedPeriod.start"/>
              <text value="Von"/>
              <type value="dateTime"/>
            </item>
            <item>
              <linkId value="appointment.requestedPeriod.end"/>
              <definition value="http://fhir.ch/ig/ch-orf/StructureDefinition/ch-orf-appointment#Appointment.requestedPeriod.end"/>
              <text value="Bis"/>
              <type value="dateTime"/>
            </item>
          </item>
          <item>
            <linkId value="appointment.status"/>
            <definition value="http://fhir.ch/ig/ch-orf/StructureDefinition/ch-orf-appointment#Appointment.status"/>
            <text value="Status"/>
            <type value="choice"/>
            <required value="true"/>
            <answerOption>
              <valueCoding>
                <system value="http://hl7.org/fhir/appointmentstatus"/>
                <code value="proposed"/>
                <display value="Wunsch des Patienten (vorgeschlagen)"/>
              </valueCoding>
              <initialSelected value="true"/>
            </answerOption>
            <answerOption>
              <valueCoding>
                <system value="http://hl7.org/fhir/appointmentstatus"/>
                <code value="pending"/>
                <display value="Vom Patienten bestätigt, aber vom Leistungserbringer noch nicht (ausstehend)"/>
              </valueCoding>
            </answerOption>
            <answerOption>
              <valueCoding>
                <system value="http://hl7.org/fhir/appointmentstatus"/>
                <code value="booked"/>
                <display value="Vom Patienten und Leistungserbringer bestätigt (gebucht)"/>
              </valueCoding>
            </answerOption>
          </item>
          <item>
            <linkId value="appointment.patientInstruction"/>
            <definition value="http://fhir.ch/ig/ch-orf/StructureDefinition/ch-orf-appointment#Appointment.patientInstruction"/>
            <text value="Patienteninformation für diesen Termin"/>
            <type value="string"/>
          </item>
        </item>
        <item>
          <linkId value="note"/>
          <text value="Bemerkungen"/>
          <type value="group"/>
          <repeats value="true"/>
          <item>
            <linkId value="note.text"/>
            <definition value="http://fhir.ch/ig/ch-orf/StructureDefinition/ch-orf-servicerequest#ServiceRequest.note.text"/>
            <text value="Kommentar"/>
            <type value="string"/>
            <required value="true"/>
          </item>
        </item>
      </Questionnaire>
    </resource>
  </entry>
  <entry>
    <fullUrl value="urn:uuid:621d538a-3837-4c97-b6d5-c9661c493383"/>
    <resource>
      <PractitionerRole>
        <practitioner>
          <reference value="urn:uuid:72136e39-f7ed-4da0-881a-ee6ca9d787a6"/>
        </practitioner>
      </PractitionerRole>
    </resource>
  </entry>
  <entry>
    <fullUrl value="urn:uuid:72136e39-f7ed-4da0-881a-ee6ca9d787a6"/>
    <resource>
      <Practitioner>
        <name>
          <family value="Röntgen"/>
          <given value="Hans"/>
          <prefix value="Dr. med.">
            <extension url="http://hl7.org/fhir/StructureDefinition/iso21090-EN-qualifier">
              <valueCode value="AC"/>
            </extension>
          </prefix>
        </name>
        <telecom>
          <system value="phone"/>
          <value value="044 412 00 99"/>
        </telecom>
        <telecom>
          <system value="email"/>
          <value value="hans.roentgen@kantonsspital.ch"/>
        </telecom>
      </Practitioner>
    </resource>
  </entry>
  <entry>
    <fullUrl value="urn:uuid:11e864ff-443d-4cd3-9e28-31a9c3f6751d"/>
    <resource>
      <PractitionerRole>
        <practitioner>
          <reference value="urn:uuid:adb1b9a0-a1fe-4af4-86c1-c7fa3d727c83"/>
        </practitioner>
      </PractitionerRole>
    </resource>
  </entry>
  <entry>
    <fullUrl value="urn:uuid:adb1b9a0-a1fe-4af4-86c1-c7fa3d727c83"/>
    <resource>
      <Practitioner>
        <name>
          <family value="Meier"/>
          <given value="Sabine"/>
          <prefix value="Dr. med.">
            <extension url="http://hl7.org/fhir/StructureDefinition/iso21090-EN-qualifier">
              <valueCode value="AC"/>
            </extension>
          </prefix>
        </name>
        <telecom>
          <system value="phone"/>
          <value value="044 333 22 11"/>
        </telecom>
        <telecom>
          <system value="email"/>
          <value value="sabine.meier@praxisseeblick.ch"/>
        </telecom>
      </Practitioner>
    </resource>
  </entry>
  <entry>
    <fullUrl value="urn:uuid:0b342eb6-26db-4943-b67b-b56399b557c5"/>
    <resource>
      <PractitionerRole>
        <practitioner>
          <reference value="urn:uuid:3e40f062-b7a8-4d17-bf05-65d59cd60f31"/>
        </practitioner>
        <organization>
          <reference value="urn:uuid:81b2eebe-3a44-461b-88fd-0955354005e4"/>
        </organization>
      </PractitionerRole>
    </resource>
  </entry>
  <entry>
    <fullUrl value="urn:uuid:3e40f062-b7a8-4d17-bf05-65d59cd60f31"/>
    <resource>
      <Practitioner>
        <identifier>
          <system value="urn:oid:2.51.1.3"/>
          <value value="7601000066878"/>
        </identifier>
        <name>
          <family value="Röntgen"/>
          <given value="Hans"/>
          <prefix value="Dr. med.">
            <extension url="http://hl7.org/fhir/StructureDefinition/iso21090-EN-qualifier">
              <valueCode value="AC"/>
            </extension>
          </prefix>
        </name>
        <telecom>
          <system value="phone"/>
          <value value="044 412 00 99"/>
        </telecom>
        <telecom>
          <system value="email"/>
          <value value="hans.roentgen@kantonsspital.ch"/>
        </telecom>
      </Practitioner>
    </resource>
  </entry>
  <entry>
    <fullUrl value="urn:uuid:81b2eebe-3a44-461b-88fd-0955354005e4"/>
    <resource>
      <Organization>
        <name value="Kantonsspital"/>
        <address>
          <line value="Kantonsstrasse 14"/>
          <line value="Postfach 14"/>
          <city value="Zürich"/>
          <postalCode value="8000"/>
          <country value="Schweiz"/>
        </address>
      </Organization>
    </resource>
  </entry>
  <entry>
    <fullUrl value="urn:uuid:322dfa17-00d3-4f8e-aa66-8d52a3f316c1"/>
    <resource>
      <Encounter>
        <extension url="http://fhir.ch/ig/ch-orf/StructureDefinition/ch-orf-desiredaccommodation">
          <valueCoding>
            <system value="http://terminology.hl7.org/CodeSystem/v3-ActCode"/>
            <code value="SP"/>
            <display value="Zweierzimmer"/>
          </valueCoding>
        </extension>
        <status value="planned"/>
        <class>
          <system value="http://terminology.hl7.org/CodeSystem/v3-ActCode"/>
          <code value="EMER"/>
          <display value="Notfall"/>
        </class>
        <subject>
          <reference value="urn:uuid:f00720ca-4cee-4a33-9c72-ab8858d05c15"/>
        </subject>
      </Encounter>
    </resource>
  </entry>
  <entry>
    <fullUrl value="urn:uuid:5718bcfc-818a-455c-839b-ee63ef0c295a"/>
    <resource>
      <Coverage>
        <contained>
          <Organization>
            <id value="org"/>
            <name value="Sanitas"/>
          </Organization>
        </contained>
        <identifier>
          <type>
            <coding>
              <system value="http://fhir.ch/ig/ch-orf/CodeSystem/ch-orf-cs-coverageidentifiertype"/>
              <code value="VeKa"/>
            </coding>
          </type>
          <value value="80756015090002647590"/>
        </identifier>
        <status value="active"/>
        <type>
          <coding>
            <system value="http://fhir.ch/ig/ch-orf/CodeSystem/ch-orf-cs-coveragetype"/>
            <code value="KVG"/>
          </coding>
        </type>
        <beneficiary>
          <reference value="urn:uuid:f00720ca-4cee-4a33-9c72-ab8858d05c15"/>
        </beneficiary>
        <payor>
          <reference value="#org"/>
        </payor>
      </Coverage>
    </resource>
  </entry>
  <entry>
    <fullUrl value="urn:uuid:bbd52527-72f7-47ba-a330-0ebdfcebd2e0"/>
    <resource>
      <PractitionerRole>
        <practitioner>
          <reference value="urn:uuid:007d5b98-d7d7-43ac-a676-86ce05f9f38e"/>
        </practitioner>
        <organization>
          <reference value="urn:uuid:1ff584f7-6c54-4671-85a6-8147b7a08468"/>
        </organization>
      </PractitionerRole>
    </resource>
  </entry>
  <entry>
    <fullUrl value="urn:uuid:007d5b98-d7d7-43ac-a676-86ce05f9f38e"/>
    <resource>
      <Practitioner>
        <identifier>
          <system value="urn:oid:2.51.1.3"/>
          <value value="7601000034321"/>
        </identifier>
        <name>
          <family value="Meier"/>
          <given value="Sabine"/>
          <prefix value="Dr. med.">
            <extension url="http://hl7.org/fhir/StructureDefinition/iso21090-EN-qualifier">
              <valueCode value="AC"/>
            </extension>
          </prefix>
        </name>
        <telecom>
          <system value="phone"/>
          <value value="044 333 22 11"/>
        </telecom>
        <telecom>
          <system value="email"/>
          <value value="sabine.meier@praxisseeblick.ch"/>
        </telecom>
      </Practitioner>
    </resource>
  </entry>
  <entry>
    <fullUrl value="urn:uuid:1ff584f7-6c54-4671-85a6-8147b7a08468"/>
    <resource>
      <Organization>
        <name value="Praxis Seeblick"/>
        <address>
          <line value="Seestrasse 133"/>
          <line value="Haus C"/>
          <city value="Zürich"/>
          <postalCode value="8000"/>
          <country value="Schweiz"/>
        </address>
      </Organization>
    </resource>
  </entry>
  <entry>
    <fullUrl value="urn:uuid:22a635e9-71ca-43ff-91cb-6c394fda79b1"/>
    <resource>
      <PractitionerRole>
        <practitioner>
          <reference value="urn:uuid:39b938b1-3493-49b7-8c4c-e8e3d385f318"/>
        </practitioner>
        <organization>
          <reference value="urn:uuid:1ff584f7-6c54-4671-85a6-8147b7a08468"/>
        </organization>
      </PractitionerRole>
    </resource>
  </entry>
  <entry>
    <fullUrl value="urn:uuid:39b938b1-3493-49b7-8c4c-e8e3d385f318"/>
    <resource>
      <Practitioner>
        <name>
          <family value="Boss"/>
          <given value="Stabilo"/>
        </name>
        <telecom>
          <system value="phone"/>
          <value value="044 333 22 12"/>
        </telecom>
        <telecom>
          <system value="email"/>
          <value value="stabilo.boss@praxisseeblick.ch"/>
        </telecom>
      </Practitioner>
    </resource>
  </entry>
  <entry>
    <fullUrl value="urn:uuid:3df0adb5-e405-4e88-bbc0-0686cb2964c8"/>
    <resource>
      <Organization>
        <name value="Praxis Seeblick"/>
        <telecom>
          <system value="phone"/>
          <value value="044 333 22 11"/>
        </telecom>
        <telecom>
          <system value="email"/>
          <value value="sabine.meier@praxisseeblick.ch"/>
        </telecom>
        <contact>
          <name>
            <family value="Meier"/>
            <given value="Sabine"/>
            <prefix value="Dr. med.">
              <extension url="http://hl7.org/fhir/StructureDefinition/iso21090-EN-qualifier">
                <valueCode value="AC"/>
              </extension>
            </prefix>
          </name>
        </contact>
      </Organization>
    </resource>
  </entry>
  <entry>
    <fullUrl value="urn:uuid:1eeeaaa1-4395-43b0-85e9-4f538dfb83ed"/>
    <resource>
      <Patient>
        <name>
          <family value="Musterfrau"/>
          <given value="Erika"/>
        </name>
        <telecom>
          <system value="phone"/>
          <value value="079 979 79 79"/>
        </telecom>
        <telecom>
          <system value="email"/>
          <value value="erika@musterfrau.ch"/>
        </telecom>
        <address>
          <line value="Musterweg"/>
          <line value="6a"/>
          <city value="Zürich"/>
          <postalCode value="8000"/>
          <country value="Schweiz"/>
        </address>
      </Patient>
    </resource>
  </entry>
</Bundle>