<?xml version="1.0" encoding="UTF-8"?>

<Bundle xmlns="http://hl7.org/fhir">
  <id value="radiology-order"/>
  <meta>
    <profile value="http://fhir.ch/ig/ch-orf/StructureDefinition/ch-orf-document" />
  </meta>
  <identifier>
    <system value="urn:ietf:rfc:3986"/>
    <value value="urn:uuid:51c7f7b5-8379-4afd-b02c-b7fe65c24a9c"/>
  </identifier>
  <type value="document"/>
  <timestamp value="2021-03-15T15:42:18+00:00"/>
  <entry>
    <fullUrl value="urn:uuid:5656e042-dbdf-4b10-a497-1a7081e2c26b"/>
    <resource>
      <Composition>
        <extension url="http://fhir.ch/ig/ch-core/StructureDefinition/ch-ext-epr-dataenterer">
          <extension url="enterer">
            <valueReference>
              <reference value="urn:uuid:7a6b1cb4-fed0-4151-bcb7-5a6b2fdea0fe"/>
            </valueReference>
          </extension>
        </extension>
        <extension url="http://fhir.ch/ig/ch-orf/StructureDefinition/ch-orf-copyreceiver">
          <valueReference>
            <reference value="urn:uuid:5cd44b1a-979c-4fd3-a327-7179a2ff91f4"/>
          </valueReference>
        </extension>
        <status value="final"/>
        <type>
          <coding>
            <system value="urn:oid:2.16.756.5.30.1.127.3.4"/>
            <code value="2161000195103"/>
            <display value="Imaging order (record articact)"/>
          </coding>
        </type>
        <category>
          <coding>
            <system value="http://snomed.info/sct"/>
            <code value="721963009"/>
            <display value="Order (record artifact)"/>
          </coding>
        </category>
        <subject>
          <reference value="urn:uuid:58b8af24-8a86-4c8f-9f42-74c506592d49"/>
          <type value="Patient"/>
        </subject>
        <date value="2021-03-15T15:42:18+00:00"/>
        <author>
          <reference value="urn:uuid:f03295fd-d458-4f69-9e6e-bb226e8acb3a"/>
          <type value="PractitionerRole"/>
        </author>
        <title value="Radiology Order"/>
        <section>
          <entry>
            <reference value="http://example.com/fhir/Questionnaire/order-referral-form"/>
            <type value="Questionnaire"/>
          </entry>
          <entry>
            <reference value="urn:uuid:195c2b60-0aec-4d73-9ef0-963bd13a65c1"/>
            <type value="QuestionnaireResponse"/>
          </entry>
          <entry>
            <reference value="urn:uuid:1c35e3f9-21f8-4138-bebb-bcfa6710804e"/>
            <type value="ServiceRequest"/>
          </entry>
        </section>
      </Composition>
    </resource>
  </entry>
  <entry>
    <fullUrl value="urn:uuid:58b8af24-8a86-4c8f-9f42-74c506592d49"/>
    <resource>
      <Patient>
        <name>
          <use value="official"/>
          <family value="Ufferer">
            <extension url="http://fhir.ch/ig/ch-core/StructureDefinition/ch-ext-ech-11-name">
              <valueCode value="officialName"/>
            </extension>
          </family>
          <given value="Susanna">
            <extension url="http://fhir.ch/ig/ch-core/StructureDefinition/ch-ext-ech-11-firstname">
              <valueCode value="officialFirstName"/>
            </extension>
          </given>
        </name>
        <name>
          <use value="maiden"/>
          <family value="Leidend">
            <extension url="http://fhir.ch/ig/ch-core/StructureDefinition/ch-ext-ech-11-name">
              <valueCode value="originalName"/>
            </extension>
          </family>
        </name>
        <telecom>
          <system value="phone"/>
          <value value="079 979 79 79"/>
        </telecom>
        <telecom>
          <system value="email"/>
          <value value="susanna@ufferer.ch"/>
        </telecom>
        <gender value="female"/>
        <birthDate value="1970-03-14"/>
        <address>
          <line value="Musterweg"/>
          <line value="6a"/>
          <city value="Zürich"/>
          <postalCode value="8000"/>
          <country value="Schweiz"/>
        </address>
      </Patient>
    </resource>
  </entry>
  <entry>
    <fullUrl value="urn:uuid:195c2b60-0aec-4d73-9ef0-963bd13a65c1"/>
    <resource>
      <QuestionnaireResponse>
        <meta>
          <profile value="http://fhir.ch/ig/ch-orf/StructureDefinition/ch-orf-questionnaireresponse"/>
        </meta>
        <questionnaire value="http://fhir.ch/ig/ch-orf/Questionnaire/order-referral-form"/>
        <status value="completed"/>
        <item>
          <linkId value="order"/>
          <text value="Auftrag"/>
          <item>
            <linkId value="order.placerOrderIdentifier"/>
            <text value="Auftragsnummer des Auftraggebers"/>
            <answer>
              <valueString value="2156286"/>
            </answer>
          </item>
          <item>
            <linkId value="order.placerOrderIdentifierDomain"/>
            <text value="Identifier Domain der Auftragsnummer des Auftraggebers"/>
            <answer>
              <valueString value="urn:oid:1.3.4.5.6.7"/>
            </answer>
          </item>
          <item>
            <linkId value="order.priority"/>
            <text value="Auftragspriorität"/>
            <answer>
              <valueCoding>
                <system value="http://hl7.org/fhir/request-priority"/>
                <code value="routine"/>
              </valueCoding>
            </answer>
          </item>
        </item>
        <item>
          <linkId value="receiver"/>
          <text value="Empfänger"/>
          <item>
            <linkId value="receiver.practitioner"/>
            <text value="Empfangende Person"/>
            <item>
              <linkId value="receiver.practitioner.title"/>
              <text value="Titel"/>
              <answer>
                <valueString value="Dr. med."/>
              </answer>
            </item>
            <item>
              <linkId value="receiver.practitioner.familyName"/>
              <text value="Name"/>
              <answer>
                <valueString value="Rderfiller"/>
              </answer>
            </item>
            <item>
              <linkId value="receiver.practitioner.givenName"/>
              <text value="Vorname"/>
              <answer>
                <valueString value="Otto"/>
              </answer>
            </item>
            <item>
              <linkId value="receiver.practitioner.gln"/>
              <text value="GLN"/>
              <answer>
                <valueString value="7601000066878"/>
              </answer>
            </item>
            <item>
              <linkId value="receiver.practitioner.phone"/>
              <text value="Telefon"/>
              <answer>
                <valueString value="044 412 00 99"/>
              </answer>
            </item>
            <item>
              <linkId value="receiver.practitioner.email"/>
              <text value="E-Mail"/>
              <answer>
                <valueString value="o.rderfiller@happyhospital.ch"/>
              </answer>
            </item>
          </item>
          <item>
            <linkId value="receiver.organization"/>
            <text value="Empfangende Organisation"/>
            <item>
              <linkId value="receiver.organization.name"/>
              <text value="Name der Organisation"/>
              <answer>
                <valueString value="Klinik Happy Hospital"/>
              </answer>
            </item>
            <item>
              <linkId value="receiver.organization.streetAddressLine"/>
              <text value="Strasse, Hausnummer, Postfach etc."/>
              <answer>
                <valueString value="Seestrasse 133"/>
              </answer>
              <answer>
                <valueString value="Haus C"/>
              </answer>
            </item>
            <item>
              <linkId value="receiver.organization.postalCode"/>
              <text value="PLZ"/>
              <answer>
                <valueString value="8000"/>
              </answer>
            </item>
            <item>
              <linkId value="receiver.organization.city"/>
              <text value="Ort"/>
              <answer>
                <valueString value="Zürich"/>
              </answer>
            </item>
            <item>
              <linkId value="receiver.organization.country"/>
              <text value="Land"/>
              <answer>
                <valueString value="Schweiz"/>
              </answer>
            </item>
          </item>
        </item>
        <item>
          <linkId value="patient"/>
          <text value="Patient"/>
          <item>
            <linkId value="patient.familyName"/>
            <text value="Name"/>
            <answer>
              <valueString value="Ufferer"/>
            </answer>
          </item>
          <item>
            <linkId value="patient.maidenName"/>
            <text value="Ledigname"/>
            <answer>
              <valueString value="Leidend"/>
            </answer>
          </item>
          <item>
            <linkId value="patient.givenName"/>
            <text value="Vorname"/>
            <answer>
              <valueString value="Susanna"/>
            </answer>
          </item>
          <item>
            <linkId value="patient.birthDate"/>
            <text value="Geburtsdatum"/>
            <answer>
              <valueDate value="1970-03-14"/>
            </answer>
          </item>
          <item>
            <linkId value="patient.gender"/>
            <text value="Geschlecht"/>
            <answer>
              <valueCoding>
                <system value="http://hl7.org/fhir/administrative-gender"/>
                <code value="female"/>
              </valueCoding>
            </answer>
          </item>
          <item>
            <linkId value="patient.phone"/>
            <text value="Telefon"/>
            <answer>
              <valueString value="079 979 79 79"/>
            </answer>
          </item>
          <item>
            <linkId value="patient.email"/>
            <text value="E-Mail"/>
            <answer>
              <valueString value="susanna@ufferer.ch"/>
            </answer>
          </item>
          <item>
            <linkId value="patient.streetAddressLine"/>
            <text value="Strasse, Hausnummer, Postfach etc."/>
            <answer>
              <valueString value="Musterweg"/>
            </answer>
            <answer>
              <valueString value="6a"/>
            </answer>
          </item>
          <item>
            <linkId value="patient.postalCode"/>
            <text value="PLZ"/>
            <answer>
              <valueString value="8000"/>
            </answer>
          </item>
          <item>
            <linkId value="patient.city"/>
            <text value="Ort"/>
            <answer>
              <valueString value="Zürich"/>
            </answer>
          </item>
          <item>
            <linkId value="patient.country"/>
            <text value="Land"/>
            <answer>
              <valueString value="Schweiz"/>
            </answer>
          </item>
        </item>
        <item>
          <linkId value="sender"/>
          <text value="Absender"/>
          <item>
            <linkId value="sender.author"/>
            <text value="Verantwortlicher"/>
            <item>
              <linkId value="sender.author.practitioner"/>
              <text value="Verantwortliche Person"/>
              <item>
                <linkId value="sender.author.practitioner.title"/>
                <text value="Titel"/>
                <answer>
                  <valueString value="Dr. med."/>
                </answer>
              </item>
              <item>
                <linkId value="sender.author.practitioner.familyName"/>
                <text value="Name"/>
                <answer>
                  <valueString value="Rderplacer"/>
                </answer>
              </item>
              <item>
                <linkId value="sender.author.practitioner.givenName"/>
                <text value="Vorname"/>
                <answer>
                  <valueString value="Ottilie"/>
                </answer>
              </item>
              <item>
                <linkId value="sender.author.practitioner.gln"/>
                <text value="GLN"/>
                <answer>
                  <valueString value="7601000034321"/>
                </answer>
              </item>
              <item>
                <linkId value="sender.author.practitioner.phone"/>
                <text value="Telefon"/>
                <answer>
                  <valueString value="044 333 22 11"/>
                </answer>
              </item>
              <item>
                <linkId value="sender.author.practitioner.email"/>
                <text value="E-Mail"/>
                <answer>
                  <valueString value="o.rderplacer@happydoctors.ch"/>
                </answer>
              </item>
            </item>
            <item>
              <linkId value="sender.author.organization"/>
              <text value="Verantwortliche Organisation"/>
              <item>
                <linkId value="sender.author.organization.name"/>
                <text value="Name der Organisation"/>
                <answer>
                  <valueString value="Praxis Happy Doctors"/>
                </answer>
              </item>
              <item>
                <linkId value="sender.author.organization.streetAddressLine"/>
                <text value="Strasse, Hausnummer, Postfach etc."/>
                <answer>
                  <valueString value="Kantonsstrasse 14"/>
                </answer>
                <answer>
                  <valueString value="Postfach 14"/>
                </answer>
              </item>
              <item>
                <linkId value="sender.author.organization.postalCode"/>
                <text value="PLZ"/>
                <answer>
                  <valueString value="8000"/>
                </answer>
              </item>
              <item>
                <linkId value="sender.author.organization.city"/>
                <text value="Ort"/>
                <answer>
                  <valueString value="Zürich"/>
                </answer>
              </item>
              <item>
                <linkId value="sender.author.organization.country"/>
                <text value="Land"/>
                <answer>
                  <valueString value="Schweiz"/>
                </answer>
              </item>
            </item>
          </item>
          <item>
            <linkId value="sender.dataenterer"/>
            <text value="Erfasser"/>
            <item>
              <linkId value="sender.dataenterer.practitioner"/>
              <text value="Erfassende Person"/>
              <item>
                <linkId value="sender.dataenterer.practitioner.familyName"/>
                <text value="Name"/>
                <answer>
                  <valueString value="Ataenterer"/>
                </answer>
              </item>
              <item>
                <linkId value="sender.dataenterer.practitioner.givenName"/>
                <text value="Vorname"/>
                <answer>
                  <valueString value="Doris"/>
                </answer>
              </item>
              <item>
                <linkId value="sender.dataenterer.practitioner.phone"/>
                <text value="Telefon"/>
                <answer>
                  <valueString value="044 333 22 11"/>
                </answer>
              </item>
              <item>
                <linkId value="sender.dataenterer.practitioner.email"/>
                <text value="E-Mail"/>
                <answer>
                  <valueString value="d.ataenterer@happydoctors.ch"/>
                </answer>
              </item>
            </item>
          </item>
        </item>
        <item>
          <linkId value="receiverCopies"/>
          <text value="Kopieempfänger"/>
          <item>
            <linkId value="receiverCopy"/>
            <text value="Kopieempfangende Organisation oder Person"/>
            <item>
              <linkId value="receiverCopy.familyName"/>
              <text value="Name"/>
              <answer>
                <valueString value="Ufferer"/>
              </answer>
            </item>
            <item>
              <linkId value="receiverCopy.givenName"/>
              <text value="Vorname"/>
              <answer>
                <valueString value="Susanna"/>
              </answer>
            </item>
            <item>
              <linkId value="receiverCopy.phone"/>
              <text value="Telefon"/>
              <answer>
                <valueString value="079 979 79 79"/>
              </answer>
            </item>
            <item>
              <linkId value="receiverCopy.email"/>
              <text value="E-Mail"/>
              <answer>
                <valueString value="susanna@ufferer.ch"/>
              </answer>
            </item>
            <item>
              <linkId value="receiverCopy.streetAddressLine"/>
              <text value="Strasse, Hausnummer, Postfach etc."/>
              <answer>
                <valueString value="Musterweg"/>
              </answer>
              <answer>
                <valueString value="6a"/>
              </answer>
            </item>
            <item>
              <linkId value="receiverCopy.postalCode"/>
              <text value="PLZ"/>
              <answer>
                <valueString value="8000"/>
              </answer>
            </item>
            <item>
              <linkId value="receiverCopy.city"/>
              <text value="Ort"/>
              <answer>
                <valueString value="Zürich"/>
              </answer>
            </item>
            <item>
              <linkId value="receiverCopy.country"/>
              <text value="Land"/>
              <answer>
                <valueString value="Schweiz"/>
              </answer>
            </item>
          </item>
        </item>
      </QuestionnaireResponse>
    </resource>
  </entry>
  <entry>
    <fullUrl value="urn:uuid:1c35e3f9-21f8-4138-bebb-bcfa6710804e"/>
    <resource>
      <ServiceRequest>
        <identifier>
          <type>
            <coding>
              <system value="http://terminology.hl7.org/CodeSystem/v2-0203"/>
              <code value="PLAC"/>
            </coding>
          </type>
          <system value="urn:oid:1.3.4.5.6.7"/>
          <value value="2156286"/>
        </identifier>
        <status value="active"/>
        <intent value="order"/>
        <priority value="routine"/>
        <subject>
          <reference value="urn:uuid:58b8af24-8a86-4c8f-9f42-74c506592d49"/>
          <type value="Patient"/>
        </subject>
        <requester>
          <reference value="urn:uuid:f03295fd-d458-4f69-9e6e-bb226e8acb3a"/>
          <type value="PractitionerRole"/>
        </requester>
        <performer>
          <reference value="urn:uuid:eef789b3-7bf1-46da-9ced-8b27af993739"/>
          <type value="PractitionerRole"/>
        </performer>
      </ServiceRequest>
    </resource>
  </entry>
  <entry>
    <fullUrl value="urn:uuid:eef789b3-7bf1-46da-9ced-8b27af993739"/>
    <resource>
      <PractitionerRole>
        <practitioner>
          <reference value="urn:uuid:a1a69f29-2ee3-4c1a-8279-f05094605126"/>
          <type value="Practitioner"/>
        </practitioner>
        <organization>
          <reference value="urn:uuid:d8772a58-3175-4dd1-ba13-5cf658d8672b"/>
          <type value="Organization"/>
        </organization>
      </PractitionerRole>
    </resource>
  </entry>
  <entry>
    <fullUrl value="urn:uuid:a1a69f29-2ee3-4c1a-8279-f05094605126"/>
    <resource>
      <Practitioner>
        <identifier>
          <system value="urn:oid:2.51.1.3"/>
          <value value="7601000066878"/>
        </identifier>
        <name>
          <family value="Rderfiller"/>
          <given value="Otto"/>
          <prefix value="Dr. med.">
            <extension url="http://hl7.org/fhir/StructureDefinition/iso21090-EN-qualifier">
              <valueCode value="AC"/>
            </extension>
          </prefix>
        </name>
        <telecom>
          <system value="phone"/>
          <value value="044 412 00 99"/>
        </telecom>
        <telecom>
          <system value="email"/>
          <value value="o.rderfiller@happyhospital.ch"/>
        </telecom>
      </Practitioner>
    </resource>
  </entry>
  <entry>
    <fullUrl value="urn:uuid:d8772a58-3175-4dd1-ba13-5cf658d8672b"/>
    <resource>
      <Organization>
        <name value="Klinik Happy Hospital"/>
        <address>
          <line value="Seestrasse 133"/>
          <line value="Haus C"/>
          <city value="Zürich"/>
          <postalCode value="8000"/>
          <country value="Schweiz"/>
        </address>
      </Organization>
    </resource>
  </entry>
  <entry>
    <fullUrl value="urn:uuid:f03295fd-d458-4f69-9e6e-bb226e8acb3a"/>
    <resource>
      <PractitionerRole>
        <practitioner>
          <reference value="urn:uuid:2b5737e2-caab-4fc3-8a39-a9645a2d8521"/>
          <type value="Practitioner"/>
        </practitioner>
        <organization>
          <reference value="urn:uuid:3506ba27-72c5-41c9-bbe4-f0c6f16fb101"/>
          <type value="Organization"/>
        </organization>
      </PractitionerRole>
    </resource>
  </entry>
  <entry>
    <fullUrl value="urn:uuid:2b5737e2-caab-4fc3-8a39-a9645a2d8521"/>
    <resource>
      <Practitioner>
        <identifier>
          <system value="urn:oid:2.51.1.3"/>
          <value value="7601000034321"/>
        </identifier>
        <name>
          <family value="Rderplacer"/>
          <given value="Ottilie"/>
          <prefix value="Dr. med.">
            <extension url="http://hl7.org/fhir/StructureDefinition/iso21090-EN-qualifier">
              <valueCode value="AC"/>
            </extension>
          </prefix>
        </name>
        <telecom>
          <system value="phone"/>
          <value value="044 333 22 11"/>
        </telecom>
        <telecom>
          <system value="email"/>
          <value value="o.rderplacer@happydoctors.ch"/>
        </telecom>
      </Practitioner>
    </resource>
  </entry>
  <entry>
    <fullUrl value="urn:uuid:3506ba27-72c5-41c9-bbe4-f0c6f16fb101"/>
    <resource>
      <Organization>
        <name value="Praxis Happy Doctors"/>
        <address>
          <line value="Kantonsstrasse 14"/>
          <line value="Postfach 14"/>
          <city value="Zürich"/>
          <postalCode value="8000"/>
          <country value="Schweiz"/>
        </address>
      </Organization>
    </resource>
  </entry>
  <entry>
    <fullUrl value="urn:uuid:7a6b1cb4-fed0-4151-bcb7-5a6b2fdea0fe"/>
    <resource>
      <PractitionerRole>
        <practitioner>
          <reference value="urn:uuid:64f9210f-c320-44e4-86f9-9db4eb8d2a3b"/>
          <type value="Practitioner"/>
        </practitioner>
        <organization>
          <reference value="urn:uuid:3506ba27-72c5-41c9-bbe4-f0c6f16fb101"/>
          <type value="Organization"/>
        </organization>
      </PractitionerRole>
    </resource>
  </entry>
  <entry>
    <fullUrl value="urn:uuid:64f9210f-c320-44e4-86f9-9db4eb8d2a3b"/>
    <resource>
      <Practitioner>
        <name>
          <family value="Ataenterer"/>
          <given value="Doris"/>
        </name>
        <telecom>
          <system value="phone"/>
          <value value="044 333 22 11"/>
        </telecom>
        <telecom>
          <system value="email"/>
          <value value="d.ataenterer@happydoctors.ch"/>
        </telecom>
      </Practitioner>
    </resource>
  </entry>
  <entry>
    <fullUrl value="urn:uuid:5cd44b1a-979c-4fd3-a327-7179a2ff91f4"/>
    <resource>
      <Patient>
        <name>
          <family value="Ufferer"/>
          <given value="Susanna"/>
        </name>
        <telecom>
          <system value="phone"/>
          <value value="079 979 79 79"/>
        </telecom>
        <telecom>
          <system value="email"/>
          <value value="susanna@ufferer.ch"/>
        </telecom>
        <address>
          <line value="Musterweg"/>
          <line value="6a"/>
          <city value="Zürich"/>
          <postalCode value="8000"/>
          <country value="Schweiz"/>
        </address>
      </Patient>
    </resource>
  </entry>
  <entry>
    <fullUrl value="http://example.com/fhir/Questionnaire/order-referral-form"/>
    <resource>
      <Questionnaire>
        <id value="order-referral-form"/>
        <meta>
          <profile value="http://fhir.ch/ig/ch-orf/StructureDefinition/ch-orf-questionnaire"/>
          <profile value="http://hl7.org/fhir/uv/sdc/StructureDefinition/sdc-questionnaire"/>
          <profile value="http://hl7.org/fhir/uv/sdc/StructureDefinition/sdc-questionnaire-extract"/>
        </meta>
        <extension url="http://hl7.org/fhir/uv/sdc/StructureDefinition/sdc-questionnaire-targetStructureMap">
          <valueCanonical value="http://fhir.ch/ig/ch-orf/StructureMap/OrfQrToBundle"/>
        </extension>
        <extension url="http://hl7.org/fhir/uv/sdc/StructureDefinition/sdc-questionnaire-launchContext">
          <extension url="name">
            <valueId value="Bundle"/>
          </extension>
          <extension url="type">
            <valueCode value="Bundle"/>
          </extension>
          <extension url="description">
            <valueString value="The Bundle that is to be used to pre-populate the form"/>
          </extension>
        </extension>
        <extension url="http://hl7.org/fhir/StructureDefinition/variable">
          <valueExpression>
            <name value="Patient"/>
            <language value="text/fhirpath"/>
            <expression value="%Bundle.entry[0].resource.subject.resolve()"/>
          </valueExpression>
        </extension>
        <extension url="http://hl7.org/fhir/StructureDefinition/variable">
          <valueExpression>
            <name value="Sender"/>
            <language value="text/fhirpath"/>
            <expression value="%Bundle.entry[0].resource.author.resolve().ofType(Practitioner)"/>
          </valueExpression>
        </extension>
        <url value="http://fhir.ch/ig/ch-orf/Questionnaire/order-referral-form"/>
        <name value="OrderReferralForm"/>
        <title value="Order-Referral-Form"/>
        <status value="active"/>
        <subjectType value="Patient"/>
        <date value="2021-03-26"/>
        <publisher value="HL7 Switzerland"/>
        <item>
          <linkId value="order"/>
          <text value="Auftrag"/>
          <type value="group"/>
          <required value="true"/>
          <item>
            <linkId value="order.placerOrderIdentifier"/>
            <text value="Auftragsnummer des Auftraggebers"/>
            <type value="string"/>
          </item>
          <item>
            <extension url="http://hl7.org/fhir/StructureDefinition/questionnaire-hidden">
              <valueBoolean value="true"/>
            </extension>
            <linkId value="order.placerOrderIdentifierDomain"/>
            <text value="Identifier Domain der Auftragsnummer des Auftraggebers"/>
            <type value="string"/>
          </item>
          <item>
            <linkId value="order.fillerOrderIdentifier"/>
            <text value="Auftragsnummer des Auftragsempfängers"/>
            <type value="string"/>
          </item>
          <item>
            <extension url="http://hl7.org/fhir/StructureDefinition/questionnaire-hidden">
              <valueBoolean value="true"/>
            </extension>
            <linkId value="order.fillerOrderIdentifierDomain"/>
            <text value="Identifier Domain der Auftragsnummer des Auftragsempfängers"/>
            <type value="string"/>
          </item>
          <item>
            <extension url="http://hl7.org/fhir/StructureDefinition/questionnaire-hidden">
              <valueBoolean value="true"/>
            </extension>
            <linkId value="order.precedentDocumentIdentifier"/>
            <text value="Identifier des Vorgängerdokuments"/>
            <type value="string"/>
          </item>
          <item>
            <linkId value="order.notificationContactDocument"/>
            <text value="Dringender Benachrichtigungskontakt für dieses Dokument"/>
            <type value="group"/>
            <item>
              <linkId value="order.notificationContactDocument.practitioner"/>
              <text value="Zu benachrichtigende Person"/>
              <type value="group"/>
              <item>
                <linkId value="order.notificationContactDocument.practitioner.title"/>
                <text value="Titel"/>
                <type value="string"/>
              </item>
              <item>
                <linkId value="order.notificationContactDocument.practitioner.familyName"/>
                <text value="Name"/>
                <type value="string"/>
              </item>
              <item>
                <linkId value="order.notificationContactDocument.practitioner.givenName"/>
                <text value="Vorname"/>
                <type value="string"/>
              </item>
              <item>
                <linkId value="order.notificationContactDocument.practitioner.phone"/>
                <text value="Telefon"/>
                <type value="string"/>
              </item>
              <item>
                <linkId value="order.notificationContactDocument.practitioner.email"/>
                <text value="E-Mail"/>
                <type value="string"/>
              </item>
            </item>
          </item>
          <item>
            <linkId value="order.notificationContactDocumentResponse"/>
            <text value="Dringender Benachrichtigungskontakt für die Antwort auf dieses Dokument"/>
            <type value="group"/>
            <item>
              <linkId value="order.notificationContactDocumentResponse.practitioner"/>
              <text value="Zu benachrichtigende Person"/>
              <type value="group"/>
              <item>
                <linkId value="order.notificationContactDocumentResponse.practitioner.title"/>
                <text value="Titel"/>
                <type value="string"/>
              </item>
              <item>
                <linkId value="order.notificationContactDocumentResponse.practitioner.familyName"/>
                <text value="Name"/>
                <type value="string"/>
              </item>
              <item>
                <linkId value="order.notificationContactDocumentResponse.practitioner.givenName"/>
                <text value="Vorname"/>
                <type value="string"/>
              </item>
              <item>
                <linkId value="order.notificationContactDocumentResponse.practitioner.phone"/>
                <text value="Telefon"/>
                <type value="string"/>
              </item>
              <item>
                <linkId value="order.notificationContactDocumentResponse.practitioner.email"/>
                <text value="E-Mail"/>
                <type value="string"/>
              </item>
            </item>
          </item>
          <item>
            <linkId value="order.priority"/>
            <text value="Auftragspriorität"/>
            <type value="choice"/>
            <answerOption>
              <valueCoding>
                <system value="http://hl7.org/fhir/request-priority"/>
                <code value="routine"/>
                <display value="Die Anfrage hat normale Priorität."/>
              </valueCoding>
              <initialSelected value="true"/>
            </answerOption>
            <answerOption>
              <valueCoding>
                <system value="http://hl7.org/fhir/request-priority"/>
                <code value="urgent"/>
                <display value="Die Anfrage sollte dringend bearbeitet werden - höhere Priorität als normal."/>
              </valueCoding>
            </answerOption>
            <answerOption>
              <valueCoding>
                <system value="http://hl7.org/fhir/request-priority"/>
                <code value="asap"/>
                <display value="Die Anfrage sollte so schnell wie möglich bearbeitet werden - höhere Priorität als dringend."/>
              </valueCoding>
            </answerOption>
            <answerOption>
              <valueCoding>
                <system value="http://hl7.org/fhir/request-priority"/>
                <code value="stat"/>
                <display value="Die Anfrage sollte sofort bearbeitet werden - höchstmögliche Priorität. Z.B. bei einem Notfall."/>
              </valueCoding>
            </answerOption>
          </item>
        </item>
        <item>
          <linkId value="receiver"/>
          <text value="Empfänger"/>
          <type value="group"/>
          <item>
            <linkId value="receiver.practitioner"/>
            <text value="Empfangende Person"/>
            <type value="group"/>
            <item>
              <linkId value="receiver.practitioner.title"/>
              <text value="Titel"/>
              <type value="string"/>
            </item>
            <item>
              <linkId value="receiver.practitioner.familyName"/>
              <text value="Name"/>
              <type value="string"/>
            </item>
            <item>
              <linkId value="receiver.practitioner.givenName"/>
              <text value="Vorname"/>
              <type value="string"/>
            </item>
            <item>
              <linkId value="receiver.practitioner.gln"/>
              <text value="GLN"/>
              <type value="string"/>
            </item>
            <item>
              <linkId value="receiver.practitioner.phone"/>
              <text value="Telefon"/>
              <type value="string"/>
            </item>
            <item>
              <linkId value="receiver.practitioner.email"/>
              <text value="E-Mail"/>
              <type value="string"/>
            </item>
          </item>
          <item>
            <linkId value="receiver.organization"/>
            <text value="Empfangende Organisation"/>
            <type value="group"/>
            <item>
              <linkId value="receiver.organization.name"/>
              <text value="Name der Organisation"/>
              <type value="string"/>
            </item>
            <item>
              <linkId value="receiver.organization.streetAddressLine"/>
              <text value="Strasse, Hausnummer, Postfach etc."/>
              <type value="string"/>
              <repeats value="true"/>
            </item>
            <item>
              <linkId value="receiver.organization.postalCode"/>
              <text value="PLZ"/>
              <type value="string"/>
            </item>
            <item>
              <linkId value="receiver.organization.city"/>
              <text value="Ort"/>
              <type value="string"/>
            </item>
            <item>
              <linkId value="receiver.organization.country"/>
              <text value="Land"/>
              <type value="string"/>
            </item>
          </item>
        </item>
        <item>
          <linkId value="patient"/>
          <text value="Patient"/>
          <type value="group"/>
          <item>
            <linkId value="patient.familyName"/>
            <text value="Name"/>
            <type value="string"/>
          </item>
          <item>
            <linkId value="patient.maidenName"/>
            <text value="Ledigname"/>
            <type value="string"/>
          </item>
          <item>
            <linkId value="patient.givenName"/>
            <text value="Vorname"/>
            <type value="string"/>
          </item>
          <item>
            <linkId value="patient.localPid"/>
            <text value="Lokale Patienten-ID"/>
            <type value="string"/>
          </item>
          <item>
            <linkId value="patient.birthDate"/>
            <text value="Geburtsdatum"/>
            <type value="date"/>
          </item>
          <item>
            <linkId value="patient.gender"/>
            <text value="Geschlecht"/>
            <type value="choice"/>
            <answerOption>
              <valueCoding>
                <system value="http://hl7.org/fhir/administrative-gender"/>
                <code value="male"/>
                <display value="Männlich"/>
              </valueCoding>
              <initialSelected value="true"/>
            </answerOption>
            <answerOption>
              <valueCoding>
                <system value="http://hl7.org/fhir/administrative-gender"/>
                <code value="female"/>
                <display value="Weiblich"/>
              </valueCoding>
            </answerOption>
            <answerOption>
              <valueCoding>
                <system value="http://hl7.org/fhir/administrative-gender"/>
                <code value="other"/>
                <display value="Anderes"/>
              </valueCoding>
            </answerOption>
          </item>
          <item>
            <linkId value="patient.phone"/>
            <text value="Telefon"/>
            <type value="string"/>
          </item>
          <item>
            <linkId value="patient.email"/>
            <text value="E-Mail"/>
            <type value="string"/>
          </item>
          <item>
            <linkId value="patient.streetAddressLine"/>
            <text value="Strasse, Hausnummer, Postfach etc."/>
            <type value="string"/>
            <repeats value="true"/>
          </item>
          <item>
            <linkId value="patient.postalCode"/>
            <text value="PLZ"/>
            <type value="string"/>
          </item>
          <item>
            <linkId value="patient.city"/>
            <text value="Ort"/>
            <type value="string"/>
          </item>
          <item>
            <linkId value="patient.country"/>
            <text value="Land"/>
            <type value="string"/>
          </item>
        </item>
        <item>
          <linkId value="sender"/>
          <text value="Absender"/>
          <type value="group"/>
          <required value="true"/>
          <item>
            <linkId value="sender.author"/>
            <text value="Verantwortlicher"/>
            <type value="group"/>
            <required value="true"/>
            <item>
              <linkId value="sender.author.practitioner"/>
              <text value="Verantwortliche Person"/>
              <type value="group"/>
              <item>
                <linkId value="sender.author.practitioner.title"/>
                <text value="Titel"/>
                <type value="string"/>
              </item>
              <item>
                <linkId value="sender.author.practitioner.familyName"/>
                <text value="Name"/>
                <type value="string"/>
              </item>
              <item>
                <linkId value="sender.author.practitioner.givenName"/>
                <text value="Vorname"/>
                <type value="string"/>
              </item>
              <item>
                <linkId value="sender.author.practitioner.gln"/>
                <text value="GLN"/>
                <type value="string"/>
              </item>
              <item>
                <linkId value="sender.author.practitioner.phone"/>
                <text value="Telefon"/>
                <type value="string"/>
              </item>
              <item>
                <linkId value="sender.author.practitioner.email"/>
                <text value="E-Mail"/>
                <type value="string"/>
              </item>
            </item>
            <item>
              <linkId value="sender.author.organization"/>
              <text value="Verantwortliche Organisation"/>
              <type value="group"/>
              <item>
                <linkId value="sender.author.organization.name"/>
                <text value="Name der Organisation"/>
                <type value="string"/>
              </item>
              <item>
                <linkId value="sender.author.organization.streetAddressLine"/>
                <text value="Strasse, Hausnummer, Postfach etc."/>
                <type value="string"/>
                <repeats value="true"/>
              </item>
              <item>
                <linkId value="sender.author.organization.postalCode"/>
                <text value="PLZ"/>
                <type value="string"/>
              </item>
              <item>
                <linkId value="sender.author.organization.city"/>
                <text value="Ort"/>
                <type value="string"/>
              </item>
              <item>
                <linkId value="sender.author.organization.country"/>
                <text value="Land"/>
                <type value="string"/>
              </item>
            </item>
          </item>
          <item>
            <linkId value="sender.dataenterer"/>
            <text value="Erfasser"/>
            <type value="group"/>
            <item>
              <linkId value="sender.dataenterer.practitioner"/>
              <text value="Erfassende Person"/>
              <type value="group"/>
              <item>
                <linkId value="sender.dataenterer.practitioner.familyName"/>
                <text value="Name"/>
                <type value="string"/>
              </item>
              <item>
                <linkId value="sender.dataenterer.practitioner.givenName"/>
                <text value="Vorname"/>
                <type value="string"/>
              </item>
              <item>
                <linkId value="sender.dataenterer.practitioner.phone"/>
                <text value="Telefon"/>
                <type value="string"/>
              </item>
              <item>
                <linkId value="sender.dataenterer.practitioner.email"/>
                <text value="E-Mail"/>
                <type value="string"/>
              </item>
            </item>
          </item>
        </item>
        <item>
          <linkId value="receiverCopies"/>
          <text value="Kopieempfänger"/>
          <type value="group"/>
          <item>
            <linkId value="receiverCopy"/>
            <text value="Kopieempfangende Organisation oder Person"/>
            <type value="group"/>
            <repeats value="true"/>
            <item>
              <linkId value="receiverCopy.organization.name"/>
              <text value="Name der Organisation"/>
              <type value="string"/>
            </item>
            <item>
              <linkId value="receiverCopy.title"/>
              <text value="Titel"/>
              <type value="string"/>
            </item>
            <item>
              <linkId value="receiverCopy.familyName"/>
              <text value="Name"/>
              <type value="string"/>
            </item>
            <item>
              <linkId value="receiverCopy.givenName"/>
              <text value="Vorname"/>
              <type value="string"/>
            </item>
            <item>
              <linkId value="receiverCopy.phone"/>
              <text value="Telefon"/>
              <type value="string"/>
            </item>
            <item>
              <linkId value="receiverCopy.email"/>
              <text value="E-Mail"/>
              <type value="string"/>
            </item>
            <item>
              <linkId value="receiverCopy.streetAddressLine"/>
              <text value="Strasse, Hausnummer, Postfach etc."/>
              <type value="string"/>
              <repeats value="true"/>
            </item>
            <item>
              <linkId value="receiverCopy.postalCode"/>
              <text value="PLZ"/>
              <type value="string"/>
            </item>
            <item>
              <linkId value="receiverCopy.city"/>
              <text value="Ort"/>
              <type value="string"/>
            </item>
            <item>
              <linkId value="receiverCopy.country"/>
              <text value="Land"/>
              <type value="string"/>
            </item>
          </item>
        </item>
      </Questionnaire>
    </resource>
  </entry>
</Bundle>