<?xml version="1.0" encoding="UTF-8"?>

<Bundle xmlns="http://hl7.org/fhir">
  <id value="radiology-order"/>
  <meta>
    <profile value="http://fhir.ch/ig/ch-orf/StructureDefinition/ch-orf-document" />
  </meta>
  <identifier>
    <system value="urn:ietf:rfc:3986"/>
    <value value="urn:uuid:51c7f7b5-8379-4afd-b02c-b7fe65c24a9c"/>
  </identifier>
  <type value="document"/>
  <timestamp value="2021-03-15T15:42:18+00:00"/>
  <entry>
    <fullUrl value="urn:uuid:5656e042-dbdf-4b10-a497-1a7081e2c26b"/>
    <resource>
      <Composition>
        <extension url="http://fhir.ch/ig/ch-core/StructureDefinition/ch-ext-epr-dataenterer">
          <extension url="enterer">
            <valueReference>
              <reference value="urn:uuid:7a6b1cb4-fed0-4151-bcb7-5a6b2fdea0fe"/>
            </valueReference>
          </extension>
        </extension>
        <extension url="http://fhir.ch/ig/ch-orf/StructureDefinition/ch-orf-receiver">
          <valueReference>
            <reference value="urn:uuid:eef789b3-7bf1-46da-9ced-8b27af993739"/>
            <type value="PractitionerRole"/>
          </valueReference>
        </extension>
        <extension url="http://fhir.ch/ig/ch-orf/StructureDefinition/ch-orf-copyreceiver">
          <valueReference>
            <reference value="urn:uuid:5cd44b1a-979c-4fd3-a327-7179a2ff91f4"/>
          </valueReference>
        </extension>
        <status value="final"/>
        <type>
          <coding>
            <system value="urn:oid:2.16.756.5.30.1.127.3.4"/>
            <code value="2161000195103"/>
            <display value="Imaging order (record artifact)"/>
          </coding>
        </type>
        <category>
          <coding>
            <system value="http://snomed.info/sct"/>
            <code value="721963009"/>
            <display value="Order (record artifact)"/>
          </coding>
        </category>
        <subject>
          <reference value="urn:uuid:58b8af24-8a86-4c8f-9f42-74c506592d49"/>
          <type value="Patient"/>
        </subject>
        <date value="2021-03-15T15:42:18+00:00"/>
        <author>
          <reference value="urn:uuid:f03295fd-d458-4f69-9e6e-bb226e8acb3a"/>
          <type value="PractitionerRole"/>
        </author>
        <title value="Order-Referral-Form"/>
        <section>
          <title value="Order-Referral"/>
          <code>
            <coding>
              <system value="http://loinc.org"/>
              <code value="93037-0"/>
              <display value="Portable medical order form"/>
            </coding>
          </code>
          <entry>
            <reference value="http://example.com/fhir/Questionnaire/order-referral-form"/>
            <type value="Questionnaire"/>
          </entry>
          <entry>
            <reference value="urn:uuid:195c2b60-0aec-4d73-9ef0-963bd13a65c1"/>
            <type value="QuestionnaireResponse"/>
          </entry>
          <entry>
            <reference value="urn:uuid:1c35e3f9-21f8-4138-bebb-bcfa6710804e"/>
            <type value="ServiceRequest"/>
          </entry>
        </section>
      </Composition>
    </resource>
  </entry>
  <entry>
    <fullUrl value="urn:uuid:58b8af24-8a86-4c8f-9f42-74c506592d49"/>
    <resource>
      <Patient>
        <name>
          <family value="Ufferer">
          </family>
          <given value="Susanna">
          </given>
        </name>
        <name>
          <use value="maiden"/>
          <family value="Leidend">
          </family>
        </name>
        <telecom>
          <system value="phone"/>
          <value value="079 979 79 79"/>
        </telecom>
        <telecom>
          <system value="email"/>
          <value value="susanna@ufferer.ch"/>
        </telecom>
        <gender value="female"/>
        <birthDate value="1970-03-14"/>
        <address>
          <line value="Musterweg"/>
          <line value="6a"/>
          <city value="Z체rich"/>
          <postalCode value="8000"/>
          <country value="Schweiz"/>
        </address>
      </Patient>
    </resource>
  </entry>
  <entry>
    <fullUrl value="urn:uuid:195c2b60-0aec-4d73-9ef0-963bd13a65c1"/>
    <resource>
      <QuestionnaireResponse>
        <questionnaire value="http://fhir.ch/ig/ch-orf/Questionnaire/order-referral-form"/>
        <status value="completed"/>
        <item>
          <linkId value="order"/>
          <text value="Auftrag"/>
          <item>
            <linkId value="order.title"/>
            <text value="Titel"/>
            <answer>
              <valueString value="Order-Referral-Form"/>
            </answer>
          </item>
          <item>
            <linkId value="order.type"/>
            <text value="Typ"/>
            <answer>
              <valueCoding>
                <system value="urn:oid:2.16.756.5.30.1.127.3.4"/>
                <code value="2161000195103"/>
                <display value="Imaging order (record artifact)"/>
              </valueCoding>
            </answer>
          </item>
          <item>
            <linkId value="order.category"/>
            <text value="Kategorie"/>
            <answer>
              <valueCoding>
                <system value="http://snomed.info/sct"/>
                <code value="721963009"/>
                <display value="Order (record artifact)"/>
              </valueCoding>
            </answer>
          </item>
          <item>
            <linkId value="order.placerOrderIdentifier"/>
            <text value="Auftragsnummer des Auftraggebers"/>
            <answer>
              <valueString value="2156286"/>
            </answer>
          </item>
          <item>
            <linkId value="order.placerOrderIdentifierDomain"/>
            <text value="Identifier Domain der Auftragsnummer des Auftraggebers"/>
            <answer>
              <valueString value="urn:oid:2.16.756.5.30"/>
            </answer>
          </item>
          <item>
            <linkId value="order.priority"/>
            <text value="Auftragspriorit채t"/>
            <answer>
              <valueCoding>
                <system value="http://hl7.org/fhir/request-priority"/>
                <code value="routine"/>
              </valueCoding>
            </answer>
          </item>
        </item>
        <item>
          <linkId value="receiver"/>
          <text value="Empf채nger"/>
          <item>
            <linkId value="receiver.practitioner"/>
            <text value="Empfangende Person"/>
            <item>
              <linkId value="receiver.practitioner.title"/>
              <text value="Titel"/>
              <answer>
                <valueString value="Dr. med."/>
              </answer>
            </item>
            <item>
              <linkId value="receiver.practitioner.familyName"/>
              <text value="Name"/>
              <answer>
                <valueString value="Rderfiller"/>
              </answer>
            </item>
            <item>
              <linkId value="receiver.practitioner.givenName"/>
              <text value="Vorname"/>
              <answer>
                <valueString value="Otto"/>
              </answer>
            </item>
            <item>
              <linkId value="receiver.practitioner.gln"/>
              <text value="GLN"/>
              <answer>
                <valueString value="7601000066878"/>
              </answer>
            </item>
            <item>
              <linkId value="receiver.practitioner.phone"/>
              <text value="Telefon"/>
              <answer>
                <valueString value="044 412 00 99"/>
              </answer>
            </item>
            <item>
              <linkId value="receiver.practitioner.email"/>
              <text value="E-Mail"/>
              <answer>
                <valueString value="o.rderfiller@happyhospital.ch"/>
              </answer>
            </item>
          </item>
          <item>
            <linkId value="receiver.organization"/>
            <text value="Empfangende Organisation"/>
            <item>
              <linkId value="receiver.organization.name"/>
              <text value="Name der Organisation"/>
              <answer>
                <valueString value="Klinik Happy Hospital"/>
              </answer>
            </item>
            <item>
              <linkId value="receiver.organization.streetAddressLine"/>
              <text value="Strasse, Hausnummer, Postfach etc."/>
              <answer>
                <valueString value="Seestrasse 133"/>
              </answer>
              <answer>
                <valueString value="Haus C"/>
              </answer>
            </item>
            <item>
              <linkId value="receiver.organization.postalCode"/>
              <text value="PLZ"/>
              <answer>
                <valueString value="8000"/>
              </answer>
            </item>
            <item>
              <linkId value="receiver.organization.city"/>
              <text value="Ort"/>
              <answer>
                <valueString value="Z체rich"/>
              </answer>
            </item>
            <item>
              <linkId value="receiver.organization.country"/>
              <text value="Land"/>
              <answer>
                <valueString value="Schweiz"/>
              </answer>
            </item>
          </item>
        </item>
        <item>
          <linkId value="patient"/>
          <text value="Patient"/>
          <item>
            <linkId value="patient.familyName"/>
            <text value="Name"/>
            <answer>
              <valueString value="Ufferer"/>
            </answer>
          </item>
          <item>
            <linkId value="patient.maidenName"/>
            <text value="Ledigname"/>
            <answer>
              <valueString value="Leidend"/>
            </answer>
          </item>
          <item>
            <linkId value="patient.givenName"/>
            <text value="Vorname"/>
            <answer>
              <valueString value="Susanna"/>
            </answer>
          </item>
          <item>
            <linkId value="patient.birthDate"/>
            <text value="Geburtsdatum"/>
            <answer>
              <valueDate value="1970-03-14"/>
            </answer>
          </item>
          <item>
            <linkId value="patient.gender"/>
            <text value="Geschlecht"/>
            <answer>
              <valueCoding>
                <system value="http://hl7.org/fhir/administrative-gender"/>
                <code value="female"/>
              </valueCoding>
            </answer>
          </item>
          <item>
            <linkId value="patient.phone"/>
            <text value="Telefon"/>
            <answer>
              <valueString value="079 979 79 79"/>
            </answer>
          </item>
          <item>
            <linkId value="patient.email"/>
            <text value="E-Mail"/>
            <answer>
              <valueString value="susanna@ufferer.ch"/>
            </answer>
          </item>
          <item>
            <linkId value="patient.streetAddressLine"/>
            <text value="Strasse, Hausnummer, Postfach etc."/>
            <answer>
              <valueString value="Musterweg"/>
            </answer>
            <answer>
              <valueString value="6a"/>
            </answer>
          </item>
          <item>
            <linkId value="patient.postalCode"/>
            <text value="PLZ"/>
            <answer>
              <valueString value="8000"/>
            </answer>
          </item>
          <item>
            <linkId value="patient.city"/>
            <text value="Ort"/>
            <answer>
              <valueString value="Z체rich"/>
            </answer>
          </item>
          <item>
            <linkId value="patient.country"/>
            <text value="Land"/>
            <answer>
              <valueString value="Schweiz"/>
            </answer>
          </item>
        </item>
        <item>
          <linkId value="sender"/>
          <text value="Absender"/>
          <item>
            <linkId value="sender.author"/>
            <text value="Verantwortlicher"/>
            <item>
              <linkId value="sender.author.practitioner"/>
              <text value="Verantwortliche Person"/>
              <item>
                <linkId value="sender.author.practitioner.title"/>
                <text value="Titel"/>
                <answer>
                  <valueString value="Dr. med."/>
                </answer>
              </item>
              <item>
                <linkId value="sender.author.practitioner.familyName"/>
                <text value="Name"/>
                <answer>
                  <valueString value="Rderplacer"/>
                </answer>
              </item>
              <item>
                <linkId value="sender.author.practitioner.givenName"/>
                <text value="Vorname"/>
                <answer>
                  <valueString value="Ottilie"/>
                </answer>
              </item>
              <item>
                <linkId value="sender.author.practitioner.gln"/>
                <text value="GLN"/>
                <answer>
                  <valueString value="7601000034321"/>
                </answer>
              </item>
              <item>
                <linkId value="sender.author.practitioner.phone"/>
                <text value="Telefon"/>
                <answer>
                  <valueString value="044 333 22 11"/>
                </answer>
              </item>
              <item>
                <linkId value="sender.author.practitioner.email"/>
                <text value="E-Mail"/>
                <answer>
                  <valueString value="o.rderplacer@happydoctors.ch"/>
                </answer>
              </item>
            </item>
            <item>
              <linkId value="sender.author.organization"/>
              <text value="Verantwortliche Organisation"/>
              <item>
                <linkId value="sender.author.organization.name"/>
                <text value="Name der Organisation"/>
                <answer>
                  <valueString value="Praxis Happy Doctors"/>
                </answer>
              </item>
              <item>
                <linkId value="sender.author.organization.streetAddressLine"/>
                <text value="Strasse, Hausnummer, Postfach etc."/>
                <answer>
                  <valueString value="Kantonsstrasse 14"/>
                </answer>
                <answer>
                  <valueString value="Postfach 14"/>
                </answer>
              </item>
              <item>
                <linkId value="sender.author.organization.postalCode"/>
                <text value="PLZ"/>
                <answer>
                  <valueString value="8000"/>
                </answer>
              </item>
              <item>
                <linkId value="sender.author.organization.city"/>
                <text value="Ort"/>
                <answer>
                  <valueString value="Z체rich"/>
                </answer>
              </item>
              <item>
                <linkId value="sender.author.organization.country"/>
                <text value="Land"/>
                <answer>
                  <valueString value="Schweiz"/>
                </answer>
              </item>
            </item>
          </item>
          <item>
            <linkId value="sender.dataenterer"/>
            <text value="Erfasser"/>
            <item>
              <linkId value="sender.dataenterer.practitioner"/>
              <text value="Erfassende Person"/>
              <item>
                <linkId value="sender.dataenterer.practitioner.familyName"/>
                <text value="Name"/>
                <answer>
                  <valueString value="Ataenterer"/>
                </answer>
              </item>
              <item>
                <linkId value="sender.dataenterer.practitioner.givenName"/>
                <text value="Vorname"/>
                <answer>
                  <valueString value="Doris"/>
                </answer>
              </item>
              <item>
                <linkId value="sender.dataenterer.practitioner.phone"/>
                <text value="Telefon"/>
                <answer>
                  <valueString value="044 333 22 11"/>
                </answer>
              </item>
              <item>
                <linkId value="sender.dataenterer.practitioner.email"/>
                <text value="E-Mail"/>
                <answer>
                  <valueString value="d.ataenterer@happydoctors.ch"/>
                </answer>
              </item>
            </item>
          </item>
        </item>
        <item>
          <linkId value="receiverCopies"/>
          <text value="Kopieempf채nger"/>
          <item>
            <linkId value="receiverCopy"/>
            <text value="Kopieempfangende Organisation oder Person"/>
            <item>
              <linkId value="receiverCopy.familyName"/>
              <text value="Name"/>
              <answer>
                <valueString value="Ufferer"/>
              </answer>
            </item>
            <item>
              <linkId value="receiverCopy.givenName"/>
              <text value="Vorname"/>
              <answer>
                <valueString value="Susanna"/>
              </answer>
            </item>
            <item>
              <linkId value="receiverCopy.phone"/>
              <text value="Telefon"/>
              <answer>
                <valueString value="079 979 79 79"/>
              </answer>
            </item>
            <item>
              <linkId value="receiverCopy.email"/>
              <text value="E-Mail"/>
              <answer>
                <valueString value="susanna@ufferer.ch"/>
              </answer>
            </item>
            <item>
              <linkId value="receiverCopy.streetAddressLine"/>
              <text value="Strasse, Hausnummer, Postfach etc."/>
              <answer>
                <valueString value="Musterweg"/>
              </answer>
              <answer>
                <valueString value="6a"/>
              </answer>
            </item>
            <item>
              <linkId value="receiverCopy.postalCode"/>
              <text value="PLZ"/>
              <answer>
                <valueString value="8000"/>
              </answer>
            </item>
            <item>
              <linkId value="receiverCopy.city"/>
              <text value="Ort"/>
              <answer>
                <valueString value="Z체rich"/>
              </answer>
            </item>
            <item>
              <linkId value="receiverCopy.country"/>
              <text value="Land"/>
              <answer>
                <valueString value="Schweiz"/>
              </answer>
            </item>
          </item>
        </item>
      </QuestionnaireResponse>
    </resource>
  </entry>
  <entry>
    <fullUrl value="urn:uuid:1c35e3f9-21f8-4138-bebb-bcfa6710804e"/>
    <resource>
      <ServiceRequest>
        <identifier>
          <type>
            <coding>
              <system value="http://terminology.hl7.org/CodeSystem/v2-0203"/>
              <code value="PLAC"/>
            </coding>
          </type>
          <system value="urn:oid:2.16.756.5.30"/>
          <value value="2156286"/>
        </identifier>
        <status value="active"/>
        <intent value="order"/>
        <priority value="routine"/>
        <subject>
          <reference value="urn:uuid:58b8af24-8a86-4c8f-9f42-74c506592d49"/>
          <type value="Patient"/>
        </subject>
        <requester>
          <reference value="urn:uuid:f03295fd-d458-4f69-9e6e-bb226e8acb3a"/>
          <type value="PractitionerRole"/>
        </requester>
      </ServiceRequest>
    </resource>
  </entry>
  <entry>
    <fullUrl value="urn:uuid:eef789b3-7bf1-46da-9ced-8b27af993739"/>
    <resource>
      <PractitionerRole>
        <practitioner>
          <reference value="urn:uuid:a1a69f29-2ee3-4c1a-8279-f05094605126"/>
          <type value="Practitioner"/>
        </practitioner>
        <organization>
          <reference value="urn:uuid:d8772a58-3175-4dd1-ba13-5cf658d8672b"/>
          <type value="Organization"/>
        </organization>
      </PractitionerRole>
    </resource>
  </entry>
  <entry>
    <fullUrl value="urn:uuid:a1a69f29-2ee3-4c1a-8279-f05094605126"/>
    <resource>
      <Practitioner>
        <identifier>
          <system value="urn:oid:2.51.1.3"/>
          <value value="7601000066878"/>
        </identifier>
        <name>
          <family value="Rderfiller"/>
          <given value="Otto"/>
          <prefix value="Dr. med.">
            <extension url="http://hl7.org/fhir/StructureDefinition/iso21090-EN-qualifier">
              <valueCode value="AC"/>
            </extension>
          </prefix>
        </name>
        <telecom>
          <system value="phone"/>
          <value value="044 412 00 99"/>
        </telecom>
        <telecom>
          <system value="email"/>
          <value value="o.rderfiller@happyhospital.ch"/>
        </telecom>
      </Practitioner>
    </resource>
  </entry>
  <entry>
    <fullUrl value="urn:uuid:d8772a58-3175-4dd1-ba13-5cf658d8672b"/>
    <resource>
      <Organization>
        <name value="Klinik Happy Hospital"/>
        <address>
          <line value="Seestrasse 133"/>
          <line value="Haus C"/>
          <city value="Z체rich"/>
          <postalCode value="8000"/>
          <country value="Schweiz"/>
        </address>
      </Organization>
    </resource>
  </entry>
  <entry>
    <fullUrl value="urn:uuid:f03295fd-d458-4f69-9e6e-bb226e8acb3a"/>
    <resource>
      <PractitionerRole>
        <practitioner>
          <reference value="urn:uuid:2b5737e2-caab-4fc3-8a39-a9645a2d8521"/>
          <type value="Practitioner"/>
        </practitioner>
        <organization>
          <reference value="urn:uuid:3506ba27-72c5-41c9-bbe4-f0c6f16fb101"/>
          <type value="Organization"/>
        </organization>
      </PractitionerRole>
    </resource>
  </entry>
  <entry>
    <fullUrl value="urn:uuid:2b5737e2-caab-4fc3-8a39-a9645a2d8521"/>
    <resource>
      <Practitioner>
        <identifier>
          <system value="urn:oid:2.51.1.3"/>
          <value value="7601000034321"/>
        </identifier>
        <name>
          <family value="Rderplacer"/>
          <given value="Ottilie"/>
          <prefix value="Dr. med.">
            <extension url="http://hl7.org/fhir/StructureDefinition/iso21090-EN-qualifier">
              <valueCode value="AC"/>
            </extension>
          </prefix>
        </name>
        <telecom>
          <system value="phone"/>
          <value value="044 333 22 11"/>
        </telecom>
        <telecom>
          <system value="email"/>
          <value value="o.rderplacer@happydoctors.ch"/>
        </telecom>
      </Practitioner>
    </resource>
  </entry>
  <entry>
    <fullUrl value="urn:uuid:3506ba27-72c5-41c9-bbe4-f0c6f16fb101"/>
    <resource>
      <Organization>
        <name value="Praxis Happy Doctors"/>
        <address>
          <line value="Kantonsstrasse 14"/>
          <line value="Postfach 14"/>
          <city value="Z체rich"/>
          <postalCode value="8000"/>
          <country value="Schweiz"/>
        </address>
      </Organization>
    </resource>
  </entry>
  <entry>
    <fullUrl value="urn:uuid:7a6b1cb4-fed0-4151-bcb7-5a6b2fdea0fe"/>
    <resource>
      <PractitionerRole>
        <practitioner>
          <reference value="urn:uuid:64f9210f-c320-44e4-86f9-9db4eb8d2a3b"/>
          <type value="Practitioner"/>
        </practitioner>
        <organization>
          <reference value="urn:uuid:3506ba27-72c5-41c9-bbe4-f0c6f16fb101"/>
          <type value="Organization"/>
        </organization>
      </PractitionerRole>
    </resource>
  </entry>
  <entry>
    <fullUrl value="urn:uuid:64f9210f-c320-44e4-86f9-9db4eb8d2a3b"/>
    <resource>
      <Practitioner>
        <name>
          <family value="Ataenterer"/>
          <given value="Doris"/>
        </name>
        <telecom>
          <system value="phone"/>
          <value value="044 333 22 11"/>
        </telecom>
        <telecom>
          <system value="email"/>
          <value value="d.ataenterer@happydoctors.ch"/>
        </telecom>
      </Practitioner>
    </resource>
  </entry>
  <entry>
    <fullUrl value="urn:uuid:5cd44b1a-979c-4fd3-a327-7179a2ff91f4"/>
    <resource>
      <Patient>
        <name>
          <family value="Ufferer"/>
          <given value="Susanna"/>
        </name>
        <telecom>
          <system value="phone"/>
          <value value="079 979 79 79"/>
        </telecom>
        <telecom>
          <system value="email"/>
          <value value="susanna@ufferer.ch"/>
        </telecom>
        <address>
          <line value="Musterweg"/>
          <line value="6a"/>
          <city value="Z체rich"/>
          <postalCode value="8000"/>
          <country value="Schweiz"/>
        </address>
      </Patient>
    </resource>
  </entry>
  <entry>
    <fullUrl value="http://example.com/fhir/Questionnaire/order-referral-form"/>
    <resource>
      <Questionnaire xmlns="http://hl7.org/fhir">
        <id value="order-referral-form"/>
        <meta>
          <profile value="http://fhir.ch/ig/ch-orf/StructureDefinition/ch-orf-questionnaire"/>
          <profile value="http://hl7.org/fhir/uv/sdc/StructureDefinition/sdc-questionnaire"/>
          <profile value="http://hl7.org/fhir/uv/sdc/StructureDefinition/sdc-questionnaire-extract"/>
          <profile value="http://hl7.org/fhir/uv/sdc/StructureDefinition/sdc-questionnaire-populate"/>
        </meta>
        <extension url="http://hl7.org/fhir/uv/sdc/StructureDefinition/sdc-questionnaire-targetStructureMap">
          <valueCanonical value="http://fhir.ch/ig/ch-orf/StructureMap/OrfQrToBundle"/>
        </extension>
        <extension url="http://hl7.org/fhir/uv/sdc/StructureDefinition/sdc-questionnaire-sourceStructureMap">
          <valueCanonical value="http://fhir.ch/ig/ch-orf/StructureMap/OrfPrepopBundleToQr"/>
        </extension>
        <extension url="http://hl7.org/fhir/uv/sdc/StructureDefinition/sdc-questionnaire-launchContext">
          <extension url="name">
            <valueId value="Bundle"/>
          </extension>
          <extension url="type">
            <valueCode value="Bundle"/>
          </extension>
          <extension url="description">
            <valueString value="The Bundle that is to be used to pre-populate the form"/>
          </extension>
        </extension>
        <url value="http://fhir.ch/ig/ch-orf/Questionnaire/order-referral-form"/>
        <version value="0.9.1"/>
        <name value="OrderReferralForm"/>
        <title value="Order-Referral-Form"/>
        <status value="active"/>
        <subjectType value="Patient"/>
        <date value="2021-06-10"/>
        <publisher value="HL7 Switzerland"/>
        <contact>
          <name value="HL7 Switzerland"/>
          <telecom>
            <system value="url"/>
            <value value="https://www.hl7.ch/"/>
          </telecom>
        </contact>
        <jurisdiction>
          <coding>
            <system value="urn:iso:std:iso:3166"/>
            <code value="CH"/>
          </coding>
        </jurisdiction>
        <copyright value="CC-BY-SA-4.0"/>
        <item>
          <linkId value="order"/>
          <definition value="http://fhir.ch/ig/ch-orf/StructureDefinition/ch-orf-document#Bundle"/>
          <text value="Auftrag"/>
          <type value="group"/>
          <required value="true"/>
          <item>
            <linkId value="order.title"/>
            <definition value="http://fhir.ch/ig/ch-orf/StructureDefinition/ch-orf-composition#Composition.title"/>
            <text value="Titel"/>
            <type value="string"/>
            <required value="true"/>
            <readOnly value="true"/>
          </item>
          <item>
            <linkId value="order.type"/>
            <definition value="http://fhir.ch/ig/ch-orf/StructureDefinition/ch-orf-composition#Composition.type"/>
            <text value="Typ"/>
            <type value="choice"/>
            <required value="true"/>
            <answerValueSet value="http://fhir.ch/ig/ch-epr-term/ValueSet/DocumentEntry.typeCode"/>
          </item>
          <item>
            <linkId value="order.category"/>
            <definition value="http://fhir.ch/ig/ch-orf/StructureDefinition/ch-orf-composition#Composition.category"/>
            <text value="Kategorie"/>
            <type value="choice"/>
            <required value="true"/>
            <answerValueSet value="http://fhir.ch/ig/ch-epr-term/ValueSet/DocumentEntry.classCode"/>
          </item>
          <item>
            <linkId value="order.placerOrderIdentifier"/>
            <definition value="http://fhir.ch/ig/ch-orf/StructureDefinition/ch-orf-servicerequest#ServiceRequest.identifier:placerOrderIdentifier.value"/>
            <text value="Auftragsnummer des Auftraggebers"/>
            <type value="string"/>
          </item>
          <item>
            <extension url="http://hl7.org/fhir/StructureDefinition/questionnaire-hidden">
              <valueBoolean value="true"/>
            </extension>
            <linkId value="order.placerOrderIdentifierDomain"/>
            <definition value="http://fhir.ch/ig/ch-orf/StructureDefinition/ch-orf-servicerequest#ServiceRequest.identifier:placerOrderIdentifier.system"/>
            <text value="Identifier Domain der Auftragsnummer des Auftraggebers"/>
            <type value="string"/>
          </item>
          <item>
            <linkId value="order.fillerOrderIdentifier"/>
            <definition value="http://fhir.ch/ig/ch-orf/StructureDefinition/ch-orf-servicerequest#ServiceRequest.identifier:fillerOrderIdentifier.value"/>
            <text value="Auftragsnummer des Auftragsempf채ngers"/>
            <type value="string"/>
          </item>
          <item>
            <extension url="http://hl7.org/fhir/StructureDefinition/questionnaire-hidden">
              <valueBoolean value="true"/>
            </extension>
            <linkId value="order.fillerOrderIdentifierDomain"/>
            <definition value="http://fhir.ch/ig/ch-orf/StructureDefinition/ch-orf-servicerequest#ServiceRequest.identifier:fillerOrderIdentifier.system"/>
            <text value="Identifier Domain der Auftragsnummer des Auftragsempf채ngers"/>
            <type value="string"/>
          </item>
          <item>
            <extension url="http://hl7.org/fhir/StructureDefinition/questionnaire-hidden">
              <valueBoolean value="true"/>
            </extension>
            <linkId value="order.precedentDocumentIdentifier"/>
            <definition value="http://fhir.ch/ig/ch-orf/StructureDefinition/ch-orf-composition#Composition.extension:precedentDocument"/>
            <text value="Identifier des Vorg채ngerdokuments"/>
            <type value="string"/>
          </item>
          <item>
            <linkId value="order.notificationContactDocument"/>
            <definition value="http://fhir.ch/ig/ch-orf/StructureDefinition/ch-orf-composition#Composition.extension:urgentNoficationContactForThisDocument"/>
            <text value="Dringender Benachrichtigungskontakt f체r dieses Dokument"/>
            <type value="group"/>
            <item>
              <linkId value="order.notificationContactDocument.practitioner"/>
              <definition value="http://fhir.ch/ig/ch-core/StructureDefinition/ch-core-practitionerrole#PractitionerRole.practitioner"/>
              <text value="Zu benachrichtigende Person"/>
              <type value="group"/>
              <item>
                <linkId value="order.notificationContactDocument.practitioner.title"/>
                <definition value="http://fhir.ch/ig/ch-core/StructureDefinition/ch-core-practitioner#Practitioner.name.prefix"/>
                <text value="Titel"/>
                <type value="string"/>
              </item>
              <item>
                <linkId value="order.notificationContactDocument.practitioner.familyName"/>
                <definition value="http://fhir.ch/ig/ch-core/StructureDefinition/ch-core-practitioner#Practitioner.name.family"/>
                <text value="Name"/>
                <type value="string"/>
              </item>
              <item>
                <linkId value="order.notificationContactDocument.practitioner.givenName"/>
                <definition value="http://fhir.ch/ig/ch-core/StructureDefinition/ch-core-practitioner#Practitioner.name.given"/>
                <text value="Vorname"/>
                <type value="string"/>
              </item>
              <item>
                <linkId value="order.notificationContactDocument.practitioner.phone"/>
                <definition value="http://fhir.ch/ig/ch-core/StructureDefinition/ch-core-practitioner#Practitioner.telecom.value"/>
                <text value="Telefon"/>
                <type value="string"/>
              </item>
              <item>
                <linkId value="order.notificationContactDocument.practitioner.email"/>
                <definition value="http://fhir.ch/ig/ch-core/StructureDefinition/ch-core-practitioner#Practitioner.telecom.value"/>
                <text value="E-Mail"/>
                <type value="string"/>
              </item>
            </item>
          </item>
          <item>
            <linkId value="order.notificationContactDocumentResponse"/>
            <definition value="http://fhir.ch/ig/ch-orf/StructureDefinition/ch-orf-composition#Composition.extension:urgentNoficationContactForTheResponseToThisDocument"/>
            <text value="Dringender Benachrichtigungskontakt f체r die Antwort auf dieses Dokument"/>
            <type value="group"/>
            <item>
              <linkId value="order.notificationContactDocumentResponse.practitioner"/>
              <definition value="http://fhir.ch/ig/ch-core/StructureDefinition/ch-core-practitionerrole#PractitionerRole.practitioner"/>
              <text value="Zu benachrichtigende Person"/>
              <type value="group"/>
              <item>
                <linkId value="order.notificationContactDocumentResponse.practitioner.title"/>
                <definition value="http://fhir.ch/ig/ch-core/StructureDefinition/ch-core-practitioner#Practitioner.name.prefix"/>
                <text value="Titel"/>
                <type value="string"/>
              </item>
              <item>
                <linkId value="order.notificationContactDocumentResponse.practitioner.familyName"/>
                <definition value="http://fhir.ch/ig/ch-core/StructureDefinition/ch-core-practitioner#Practitioner.name.family"/>
                <text value="Name"/>
                <type value="string"/>
              </item>
              <item>
                <linkId value="order.notificationContactDocumentResponse.practitioner.givenName"/>
                <definition value="http://fhir.ch/ig/ch-core/StructureDefinition/ch-core-practitioner#Practitioner.name.given"/>
                <text value="Vorname"/>
                <type value="string"/>
              </item>
              <item>
                <linkId value="order.notificationContactDocumentResponse.practitioner.phone"/>
                <definition value="http://fhir.ch/ig/ch-core/StructureDefinition/ch-core-practitioner#Practitioner.telecom.value"/>
                <text value="Telefon"/>
                <type value="string"/>
              </item>
              <item>
                <linkId value="order.notificationContactDocumentResponse.practitioner.email"/>
                <definition value="http://fhir.ch/ig/ch-core/StructureDefinition/ch-core-practitioner#Practitioner.telecom.value"/>
                <text value="E-Mail"/>
                <type value="string"/>
              </item>
            </item>
          </item>
          <item>
            <linkId value="order.priority"/>
            <definition value="http://fhir.ch/ig/ch-orf/StructureDefinition/ch-orf-servicerequest#ServiceRequest.priority"/>
            <text value="Auftragspriorit채t"/>
            <type value="choice"/>
            <answerOption>
              <valueCoding>
                <system value="http://hl7.org/fhir/request-priority"/>
                <code value="routine"/>
                <display value="Die Anfrage hat normale Priorit채t."/>
              </valueCoding>
              <initialSelected value="true"/>
            </answerOption>
            <answerOption>
              <valueCoding>
                <system value="http://hl7.org/fhir/request-priority"/>
                <code value="urgent"/>
                <display value="Die Anfrage sollte dringend bearbeitet werden - h철here Priorit채t als normal."/>
              </valueCoding>
            </answerOption>
            <answerOption>
              <valueCoding>
                <system value="http://hl7.org/fhir/request-priority"/>
                <code value="asap"/>
                <display value="Die Anfrage sollte so schnell wie m철glich bearbeitet werden - h철here Priorit채t als dringend."/>
              </valueCoding>
            </answerOption>
            <answerOption>
              <valueCoding>
                <system value="http://hl7.org/fhir/request-priority"/>
                <code value="stat"/>
                <display value="Die Anfrage sollte sofort bearbeitet werden - h철chstm철gliche Priorit채t. Z.B. bei einem Notfall."/>
              </valueCoding>
            </answerOption>
          </item>
        </item>
        <item>
          <linkId value="receiver"/>
          <definition value="http://fhir.ch/ig/ch-orf/StructureDefinition/ch-orf-composition#Composition.extension:receiver"/>
          <text value="Empf채nger"/>
          <type value="group"/>
          <item>
            <linkId value="receiver.practitioner"/>
            <definition value="http://fhir.ch/ig/ch-core/StructureDefinition/ch-core-practitionerrole#PractitionerRole.practitioner"/>
            <text value="Empfangende Person"/>
            <type value="group"/>
            <item>
              <linkId value="receiver.practitioner.title"/>
              <definition value="http://fhir.ch/ig/ch-core/StructureDefinition/ch-core-practitioner#Practitioner.name.prefix"/>
              <text value="Titel"/>
              <type value="string"/>
            </item>
            <item>
              <linkId value="receiver.practitioner.familyName"/>
              <definition value="http://fhir.ch/ig/ch-core/StructureDefinition/ch-core-practitioner#Practitioner.name.family"/>
              <text value="Name"/>
              <type value="string"/>
            </item>
            <item>
              <linkId value="receiver.practitioner.givenName"/>
              <definition value="http://fhir.ch/ig/ch-core/StructureDefinition/ch-core-practitioner#Practitioner.name.given"/>
              <text value="Vorname"/>
              <type value="string"/>
            </item>
            <item>
              <linkId value="receiver.practitioner.gln"/>
              <definition value="http://fhir.ch/ig/ch-core/StructureDefinition/ch-core-practitioner#Practitioner.identifier:GLN.value"/>
              <text value="GLN"/>
              <type value="string"/>
            </item>
            <item>
              <linkId value="receiver.practitioner.phone"/>
              <definition value="http://fhir.ch/ig/ch-core/StructureDefinition/ch-core-practitioner#Practitioner.telecom.value"/>
              <text value="Telefon"/>
              <type value="string"/>
            </item>
            <item>
              <linkId value="receiver.practitioner.email"/>
              <definition value="http://fhir.ch/ig/ch-core/StructureDefinition/ch-core-practitioner#Practitioner.telecom.value"/>
              <text value="E-Mail"/>
              <type value="string"/>
            </item>
          </item>
          <item>
            <linkId value="receiver.organization"/>
            <definition value="http://fhir.ch/ig/ch-core/StructureDefinition/ch-core-practitionerrole#PractitionerRole.organization"/>
            <text value="Empfangende Organisation"/>
            <type value="group"/>
            <item>
              <linkId value="receiver.organization.name"/>
              <definition value="http://fhir.ch/ig/ch-core/StructureDefinition/ch-core-organization#Organization.name"/>
              <text value="Name der Organisation"/>
              <type value="string"/>
            </item>
            <item>
              <linkId value="receiver.organization.streetAddressLine"/>
              <definition value="http://fhir.ch/ig/ch-core/StructureDefinition/ch-core-organization#Organization.address.line"/>
              <text value="Strasse, Hausnummer, Postfach etc."/>
              <type value="string"/>
              <repeats value="true"/>
            </item>
            <item>
              <linkId value="receiver.organization.postalCode"/>
              <definition value="http://fhir.ch/ig/ch-core/StructureDefinition/ch-core-organization#Organization.address.postalCode"/>
              <text value="PLZ"/>
              <type value="string"/>
            </item>
            <item>
              <linkId value="receiver.organization.city"/>
              <definition value="http://fhir.ch/ig/ch-core/StructureDefinition/ch-core-organization#Organization.address.city"/>
              <text value="Ort"/>
              <type value="string"/>
            </item>
            <item>
              <linkId value="receiver.organization.country"/>
              <definition value="http://fhir.ch/ig/ch-core/StructureDefinition/ch-core-organization#Organization.address.country"/>
              <text value="Land"/>
              <type value="string"/>
            </item>
          </item>
        </item>
        <item>
          <linkId value="patient"/>
          <definition value="http://fhir.ch/ig/ch-orf/StructureDefinition/ch-orf-composition#Composition.subject"/>
          <text value="Patient"/>
          <type value="group"/>
          <item>
            <linkId value="patient.familyName"/>
            <definition value="http://fhir.ch/ig/ch-core/StructureDefinition/ch-core-patient#Patient.name.family"/>
            <text value="Name"/>
            <type value="string"/>
          </item>
          <item>
            <linkId value="patient.maidenName"/>
            <definition value="http://fhir.ch/ig/ch-core/StructureDefinition/ch-core-patient#Patient.name.family"/>
            <text value="Ledigname"/>
            <type value="string"/>
          </item>
          <item>
            <linkId value="patient.givenName"/>
            <definition value="http://fhir.ch/ig/ch-core/StructureDefinition/ch-core-patient#Patient.name.given"/>
            <text value="Vorname"/>
            <type value="string"/>
          </item>
          <item>
            <linkId value="patient.localPid"/>
            <definition value="http://fhir.ch/ig/ch-core/StructureDefinition/ch-core-patient#Patient.identifier:LocalPid.value"/>
            <text value="Lokale Patienten-ID"/>
            <type value="string"/>
          </item>
          <item>
            <extension url="http://hl7.org/fhir/StructureDefinition/questionnaire-hidden">
              <valueBoolean value="true"/>
            </extension>
            <linkId value="patient.localPidDomain"/>
            <definition value="http://fhir.ch/ig/ch-core/StructureDefinition/ch-core-patient#Patient.identifier:LocalPid.system"/>
            <text value="Lokale Patienten-ID Domain"/>
            <type value="string"/>
          </item>
          <item>
            <linkId value="patient.birthDate"/>
            <definition value="http://fhir.ch/ig/ch-core/StructureDefinition/ch-core-patient#Patient.birthDate"/>
            <text value="Geburtsdatum"/>
            <type value="date"/>
          </item>
          <item>
            <linkId value="patient.gender"/>
            <definition value="http://fhir.ch/ig/ch-core/StructureDefinition/ch-core-patient#Patient.gender"/>
            <text value="Geschlecht"/>
            <type value="choice"/>
            <answerOption>
              <valueCoding>
                <system value="http://hl7.org/fhir/administrative-gender"/>
                <code value="male"/>
                <display value="M채nnlich"/>
              </valueCoding>
              <initialSelected value="true"/>
            </answerOption>
            <answerOption>
              <valueCoding>
                <system value="http://hl7.org/fhir/administrative-gender"/>
                <code value="female"/>
                <display value="Weiblich"/>
              </valueCoding>
            </answerOption>
            <answerOption>
              <valueCoding>
                <system value="http://hl7.org/fhir/administrative-gender"/>
                <code value="other"/>
                <display value="Anderes"/>
              </valueCoding>
            </answerOption>
          </item>
          <item>
            <linkId value="patient.phone"/>
            <definition value="http://fhir.ch/ig/ch-core/StructureDefinition/ch-core-patient#Patient.telecom.value"/>
            <text value="Telefon"/>
            <type value="string"/>
            <repeats value="true"/>
          </item>
          <item>
            <linkId value="patient.email"/>
            <definition value="http://fhir.ch/ig/ch-core/StructureDefinition/ch-core-patient#Patient.telecom.value"/>
            <text value="E-Mail"/>
            <type value="string"/>
          </item>
          <item>
            <linkId value="patient.streetAddressLine"/>
            <definition value="http://fhir.ch/ig/ch-core/StructureDefinition/ch-core-patient#Patient.address.line"/>
            <text value="Strasse, Hausnummer, Postfach etc."/>
            <type value="string"/>
            <repeats value="true"/>
          </item>
          <item>
            <linkId value="patient.postalCode"/>
            <definition value="http://fhir.ch/ig/ch-core/StructureDefinition/ch-core-patient#Patient.address.postalCode"/>
            <text value="PLZ"/>
            <type value="string"/>
          </item>
          <item>
            <linkId value="patient.city"/>
            <definition value="http://fhir.ch/ig/ch-core/StructureDefinition/ch-core-patient#Patient.address.city"/>
            <text value="Ort"/>
            <type value="string"/>
          </item>
          <item>
            <linkId value="patient.country"/>
            <definition value="http://fhir.ch/ig/ch-core/StructureDefinition/ch-core-patient#Patient.address.country"/>
            <text value="Land"/>
            <type value="string"/>
          </item>
          <item>
            <linkId value="patient.contactperson"/>
            <definition value="http://fhir.ch/ig/ch-core/StructureDefinition/ch-core-patient#Patient.contact"/>
            <text value="Kontaktperson"/>
            <type value="group"/>
            <item>
              <linkId value="patient.contactperson.relationship"/>
              <definition value="http://fhir.ch/ig/ch-core/StructureDefinition/ch-core-patient#Patient.contact.relationship.text"/>
              <text value="Beziehung"/>
              <type value="string"/>
            </item>
            <item>
              <linkId value="patient.contactperson.familyName"/>
              <definition value="http://fhir.ch/ig/ch-core/StructureDefinition/ch-core-patient#Patient.contact.name.family"/>
              <text value="Name"/>
              <type value="string"/>
            </item>
            <item>
              <linkId value="patient.contactperson.givenName"/>
              <definition value="http://fhir.ch/ig/ch-core/StructureDefinition/ch-core-patient#Patient.contact.name.given"/>
              <text value="Vorname"/>
              <type value="string"/>
            </item>
            <item>
              <linkId value="patient.contactperson.phone"/>
              <definition value="http://fhir.ch/ig/ch-core/StructureDefinition/ch-core-patient#Patient.contact.telecom.value"/>
              <text value="Telefon"/>
              <type value="string"/>
              <repeats value="true"/>
            </item>
            <item>
              <linkId value="patient.contactperson.email"/>
              <definition value="http://fhir.ch/ig/ch-core/StructureDefinition/ch-core-patient#Patient.contact.telecom.value"/>
              <text value="E-Mail"/>
              <type value="string"/>
            </item>
          </item>
        </item>
        <item>
          <linkId value="requestedEncounter"/>
          <definition value="http://fhir.ch/ig/ch-orf/StructureDefinition/ch-orf-servicerequest#ServiceRequest.extension:requestedEncounterDetails"/>
          <text value="Patientenaufnahme"/>
          <type value="group"/>
          <item>
            <linkId value="requestedEncounter.class"/>
            <definition value="http://fhir.ch/ig/ch-orf/StructureDefinition/ch-orf-encounter#Encounter.class"/>
            <text value="Voraussichtlich: Ambulant / Station채r / Notfall"/>
            <type value="choice"/>
            <answerOption>
              <valueCoding>
                <system value="http://terminology.hl7.org/CodeSystem/v3-ActCode"/>
                <code value="AMB"/>
                <display value="Ambulant"/>
              </valueCoding>
            </answerOption>
            <answerOption>
              <valueCoding>
                <system value="http://terminology.hl7.org/CodeSystem/v3-ActCode"/>
                <code value="IMP"/>
                <display value="Station채r"/>
              </valueCoding>
            </answerOption>
            <answerOption>
              <valueCoding>
                <system value="http://terminology.hl7.org/CodeSystem/v3-ActCode"/>
                <code value="EMER"/>
                <display value="Notfall"/>
              </valueCoding>
            </answerOption>
          </item>
          <item>
            <linkId value="requestedEncounter.desiredAccommodation"/>
            <definition value="http://fhir.ch/ig/ch-orf/StructureDefinition/ch-orf-encounter#Encounter.extension:desiredAccommodation"/>
            <text value="Zimmerkategorie"/>
            <type value="choice"/>
            <answerOption>
              <valueCoding>
                <system value="http://terminology.hl7.org/CodeSystem/v3-ActCode"/>
                <code value="P"/>
                <display value="Einerzimmer"/>
              </valueCoding>
            </answerOption>
            <answerOption>
              <valueCoding>
                <system value="http://terminology.hl7.org/CodeSystem/v3-ActCode"/>
                <code value="SP"/>
                <display value="Zweierzimmer"/>
              </valueCoding>
            </answerOption>
            <answerOption>
              <valueCoding>
                <system value="http://terminology.hl7.org/CodeSystem/v3-ActCode"/>
                <code value="W"/>
                <display value="Mehrbettzimmer"/>
              </valueCoding>
            </answerOption>
          </item>
        </item>
        <item>
          <linkId value="coverage"/>
          <definition value="http://fhir.ch/ig/ch-orf/StructureDefinition/ch-orf-servicerequest#ServiceRequest.insurance"/>
          <text value="Kostentr채ger"/>
          <type value="group"/>
          <item>
            <linkId value="coverage.beneficiary"/>
            <definition value="http://fhir.ch/ig/ch-orf/StructureDefinition/ch-orf-coverage#Coverage.beneficiary"/>
            <text value="Beg체nstigter (Patient)"/>
            <type value="group"/>
            <item>
              <linkId value="coverage.beneficiary.ahvn13"/>
              <definition value="http://fhir.ch/ig/ch-core/StructureDefinition/ch-core-patient#Patient.identifier:AHVN13"/>
              <text value="AHV-Nr. des Patienten"/>
              <type value="string"/>
            </item>
          </item>
          <item>
            <linkId value="coverage.kvg"/>
            <definition value="http://fhir.ch/ig/ch-orf/StructureDefinition/ch-orf-coverage#Coverage.type"/>
            <text value="Krankenkasse (nach KVG)"/>
            <type value="group"/>
            <item>
              <linkId value="coverage.kvg.name"/>
              <definition value="http://fhir.ch/ig/ch-orf/StructureDefinition/ch-orf-coverage#Coverage.payor"/>
              <text value="Name der Versicherung"/>
              <type value="string"/>
            </item>
            <item>
              <linkId value="coverage.kvg.insuranceCardNumber"/>
              <definition value="http://fhir.ch/ig/ch-orf/StructureDefinition/ch-orf-coverage#Coverage.identifier"/>
              <text value="Kennnummer der Versichertenkarte"/>
              <type value="string"/>
            </item>
          </item>
          <item>
            <linkId value="coverage.uvg"/>
            <definition value="http://fhir.ch/ig/ch-orf/StructureDefinition/ch-orf-coverage#Coverage.type"/>
            <text value="Unfallversicherung (nach UVG)"/>
            <type value="group"/>
            <item>
              <linkId value="coverage.uvg.name"/>
              <definition value="http://fhir.ch/ig/ch-orf/StructureDefinition/ch-orf-coverage#Coverage.payor"/>
              <text value="Name der Versicherung"/>
              <type value="string"/>
            </item>
            <item>
              <linkId value="coverage.uvg.claimNumber"/>
              <definition value="http://fhir.ch/ig/ch-orf/StructureDefinition/ch-orf-coverage#Coverage.identifier"/>
              <text value="Schadennummer"/>
              <type value="string"/>
            </item>
          </item>
          <item>
            <linkId value="coverage.vvg"/>
            <definition value="http://fhir.ch/ig/ch-orf/StructureDefinition/ch-orf-coverage#Coverage.type"/>
            <text value="Zusatzversicherung (nach VVG)"/>
            <type value="group"/>
            <item>
              <linkId value="coverage.vvg.name"/>
              <definition value="http://fhir.ch/ig/ch-orf/StructureDefinition/ch-orf-coverage#Coverage.payor"/>
              <text value="Name der Versicherung"/>
              <type value="string"/>
            </item>
            <item>
              <linkId value="coverage.vvg.insuranceCardNumber"/>
              <definition value="http://fhir.ch/ig/ch-orf/StructureDefinition/ch-orf-coverage#Coverage.identifier"/>
              <text value="Kennnummer der Versichertenkarte"/>
              <type value="string"/>
            </item>
          </item>
          <item>
            <linkId value="coverage.iv"/>
            <definition value="http://fhir.ch/ig/ch-orf/StructureDefinition/ch-orf-coverage#Coverage.type"/>
            <text value="Invalidenversicherung (IV)"/>
            <type value="group"/>
            <item>
              <linkId value="coverage.iv.verfuegungsnummer"/>
              <definition value="http://fhir.ch/ig/ch-orf/StructureDefinition/ch-orf-coverage#Coverage.identifier"/>
              <text value="IV-Verf체gungsnummer"/>
              <type value="string"/>
            </item>
          </item>
          <item>
            <linkId value="coverage.mv"/>
            <definition value="http://fhir.ch/ig/ch-orf/StructureDefinition/ch-orf-coverage#Coverage.type"/>
            <text value="Milit채rversicherung (MV)"/>
            <type value="group"/>
            <item>
              <linkId value="coverage.mv.versichertennummer"/>
              <definition value="http://fhir.ch/ig/ch-orf/StructureDefinition/ch-orf-coverage#Coverage.identifier"/>
              <text value="MV-Versichertennummer"/>
              <type value="string"/>
            </item>
          </item>
          <item>
            <linkId value="coverage.self"/>
            <definition value="http://fhir.ch/ig/ch-orf/StructureDefinition/ch-orf-coverage#Coverage.type"/>
            <text value="Selbstzahler"/>
            <type value="group"/>
            <item>
              <linkId value="coverage.self.familyName"/>
              <definition value="http://fhir.ch/ig/ch-orf/StructureDefinition/ch-orf-coverage#Coverage.payor"/>
              <text value="Name"/>
              <type value="string"/>
            </item>
            <item>
              <linkId value="coverage.self.givenName"/>
              <definition value="http://fhir.ch/ig/ch-orf/StructureDefinition/ch-orf-coverage#Coverage.payor"/>
              <text value="Vorname"/>
              <type value="string"/>
            </item>
          </item>
          <item>
            <linkId value="coverage.other"/>
            <definition value="http://fhir.ch/ig/ch-orf/StructureDefinition/ch-orf-coverage#Coverage.type"/>
            <text value="Anderer Kostentr채ger"/>
            <type value="group"/>
            <item>
              <linkId value="coverage.other.name"/>
              <definition value="http://fhir.ch/ig/ch-orf/StructureDefinition/ch-orf-coverage#Coverage.payor"/>
              <text value="Name des Kostentr채gers"/>
              <type value="string"/>
            </item>
            <item>
              <linkId value="coverage.other.id"/>
              <definition value="http://fhir.ch/ig/ch-orf/StructureDefinition/ch-orf-coverage#Coverage.identifier"/>
              <text value="Beliebige ID"/>
              <type value="string"/>
            </item>
            <item>
              <linkId value="coverage.other.id.note"/>
              <definition value="http://fhir.ch/ig/ch-orf/StructureDefinition/ch-orf-coverage#Coverage.identifier.type.text"/>
              <text value="Bemerkung zur ID"/>
              <type value="string"/>
            </item>
          </item>
        </item>
        <item>
          <linkId value="sender"/>
          <text value="Absender"/>
          <type value="group"/>
          <required value="true"/>
          <item>
            <linkId value="sender.author"/>
            <definition value="http://fhir.ch/ig/ch-orf/StructureDefinition/ch-orf-composition#Composition.author"/>
            <text value="Verantwortlicher"/>
            <type value="group"/>
            <required value="true"/>
            <item>
              <linkId value="sender.author.practitioner"/>
              <definition value="http://fhir.ch/ig/ch-core/StructureDefinition/ch-core-practitionerrole#PractitionerRole.practitioner"/>
              <text value="Verantwortliche Person"/>
              <type value="group"/>
              <item>
                <linkId value="sender.author.practitioner.title"/>
                <definition value="http://fhir.ch/ig/ch-core/StructureDefinition/ch-core-practitioner#Practitioner.name.prefix"/>
                <text value="Titel"/>
                <type value="string"/>
              </item>
              <item>
                <linkId value="sender.author.practitioner.familyName"/>
                <definition value="http://fhir.ch/ig/ch-core/StructureDefinition/ch-core-practitioner#Practitioner.name.family"/>
                <text value="Name"/>
                <type value="string"/>
              </item>
              <item>
                <linkId value="sender.author.practitioner.givenName"/>
                <definition value="http://fhir.ch/ig/ch-core/StructureDefinition/ch-core-practitioner#Practitioner.name.given"/>
                <text value="Vorname"/>
                <type value="string"/>
              </item>
              <item>
                <linkId value="sender.author.practitioner.gln"/>
                <definition value="http://fhir.ch/ig/ch-core/StructureDefinition/ch-core-practitioner#Practitioner.identifier:GLN.value"/>
                <text value="GLN"/>
                <type value="string"/>
              </item>
              <item>
                <linkId value="sender.author.practitioner.phone"/>
                <definition value="http://fhir.ch/ig/ch-core/StructureDefinition/ch-core-practitioner#Practitioner.telecom.value"/>
                <text value="Telefon"/>
                <type value="string"/>
              </item>
              <item>
                <linkId value="sender.author.practitioner.email"/>
                <definition value="http://fhir.ch/ig/ch-core/StructureDefinition/ch-core-practitioner#Practitioner.telecom.value"/>
                <text value="E-Mail"/>
                <type value="string"/>
              </item>
            </item>
            <item>
              <linkId value="sender.author.organization"/>
              <definition value="http://fhir.ch/ig/ch-core/StructureDefinition/ch-core-practitionerrole#PractitionerRole.organization"/>
              <text value="Verantwortliche Organisation"/>
              <type value="group"/>
              <item>
                <linkId value="sender.author.organization.name"/>
                <definition value="http://fhir.ch/ig/ch-core/StructureDefinition/ch-core-organization#Organization.name"/>
                <text value="Name der Organisation"/>
                <type value="string"/>
              </item>
              <item>
                <linkId value="sender.author.organization.streetAddressLine"/>
                <definition value="http://fhir.ch/ig/ch-core/StructureDefinition/ch-core-organization#Organization.address.line"/>
                <text value="Strasse, Hausnummer, Postfach etc."/>
                <type value="string"/>
                <repeats value="true"/>
              </item>
              <item>
                <linkId value="sender.author.organization.postalCode"/>
                <definition value="http://fhir.ch/ig/ch-core/StructureDefinition/ch-core-organization#Organization.address.postalCode"/>
                <text value="PLZ"/>
                <type value="string"/>
              </item>
              <item>
                <linkId value="sender.author.organization.city"/>
                <definition value="http://fhir.ch/ig/ch-core/StructureDefinition/ch-core-organization#Organization.address.city"/>
                <text value="Ort"/>
                <type value="string"/>
              </item>
              <item>
                <linkId value="sender.author.organization.country"/>
                <definition value="http://fhir.ch/ig/ch-core/StructureDefinition/ch-core-organization#Organization.address.country"/>
                <text value="Land"/>
                <type value="string"/>
              </item>
            </item>
          </item>
          <item>
            <linkId value="sender.dataenterer"/>
            <definition value="http://fhir.ch/ig/ch-orf/StructureDefinition/ch-orf-composition#Composition.extension:dataEnterer"/>
            <text value="Erfasser"/>
            <type value="group"/>
            <item>
              <linkId value="sender.dataenterer.practitioner"/>
              <definition value="http://fhir.ch/ig/ch-core/StructureDefinition/ch-core-practitionerrole#PractitionerRole.practitioner"/>
              <text value="Erfassende Person"/>
              <type value="group"/>
              <item>
                <linkId value="sender.dataenterer.practitioner.familyName"/>
                <definition value="http://fhir.ch/ig/ch-core/StructureDefinition/ch-core-practitioner#Practitioner.name.family"/>
                <text value="Name"/>
                <type value="string"/>
              </item>
              <item>
                <linkId value="sender.dataenterer.practitioner.givenName"/>
                <definition value="http://fhir.ch/ig/ch-core/StructureDefinition/ch-core-practitioner#Practitioner.name.given"/>
                <text value="Vorname"/>
                <type value="string"/>
              </item>
              <item>
                <linkId value="sender.dataenterer.practitioner.phone"/>
                <definition value="http://fhir.ch/ig/ch-core/StructureDefinition/ch-core-practitioner#Practitioner.telecom.value"/>
                <text value="Telefon"/>
                <type value="string"/>
              </item>
              <item>
                <linkId value="sender.dataenterer.practitioner.email"/>
                <definition value="http://fhir.ch/ig/ch-core/StructureDefinition/ch-core-practitioner#Practitioner.telecom.value"/>
                <text value="E-Mail"/>
                <type value="string"/>
              </item>
            </item>
          </item>
        </item>
        <item>
          <linkId value="receiverCopies"/>
          <definition value="http://fhir.ch/ig/ch-orf/StructureDefinition/ch-orf-composition#Composition.extension:copyReceiver"/>
          <text value="Kopieempf채nger"/>
          <type value="group"/>
          <item>
            <linkId value="receiverCopy"/>
            <text value="Kopieempfangende Organisation oder Person"/>
            <type value="group"/>
            <repeats value="true"/>
            <item>
              <linkId value="receiverCopy.organization.name"/>
              <definition value="http://fhir.ch/ig/ch-core/StructureDefinition/ch-core-organization#Organization.name"/>
              <text value="Name der Organisation"/>
              <type value="string"/>
            </item>
            <item>
              <linkId value="receiverCopy.title"/>
              <definition value="http://fhir.ch/ig/ch-core/StructureDefinition/ch-core-humanname#HumanName.prefix"/>
              <text value="Titel"/>
              <type value="string"/>
            </item>
            <item>
              <linkId value="receiverCopy.familyName"/>
              <definition value="http://fhir.ch/ig/ch-core/StructureDefinition/ch-core-humanname#HumanName.family"/>
              <text value="Name"/>
              <type value="string"/>
            </item>
            <item>
              <linkId value="receiverCopy.givenName"/>
              <definition value="http://fhir.ch/ig/ch-core/StructureDefinition/ch-core-humanname#HumanName.given"/>
              <text value="Vorname"/>
              <type value="string"/>
            </item>
            <item>
              <linkId value="receiverCopy.phone"/>
              <definition value="http://hl7.org/fhir/StructureDefinition/ContactPoint#ContactPoint.value"/>
              <text value="Telefon"/>
              <type value="string"/>
            </item>
            <item>
              <linkId value="receiverCopy.email"/>
              <definition value="http://hl7.org/fhir/StructureDefinition/ContactPoint#ContactPoint.value"/>
              <text value="E-Mail"/>
              <type value="string"/>
            </item>
            <item>
              <linkId value="receiverCopy.streetAddressLine"/>
              <definition value="http://fhir.ch/ig/ch-core/StructureDefinition/ch-core-address#Address.line"/>
              <text value="Strasse, Hausnummer, Postfach etc."/>
              <type value="string"/>
              <repeats value="true"/>
            </item>
            <item>
              <linkId value="receiverCopy.postalCode"/>
              <definition value="http://fhir.ch/ig/ch-core/StructureDefinition/ch-core-address#Address.postalCode"/>
              <text value="PLZ"/>
              <type value="string"/>
            </item>
            <item>
              <linkId value="receiverCopy.city"/>
              <definition value="http://fhir.ch/ig/ch-core/StructureDefinition/ch-core-address#Address.city"/>
              <text value="Ort"/>
              <type value="string"/>
            </item>
            <item>
              <linkId value="receiverCopy.country"/>
              <definition value="http://fhir.ch/ig/ch-core/StructureDefinition/ch-core-address#Address.country"/>
              <text value="Land"/>
              <type value="string"/>
            </item>
          </item>
        </item>
        <item>
          <linkId value="appointment"/>
          <definition value="http://fhir.ch/ig/ch-orf/StructureDefinition/ch-orf-servicerequest#ServiceRequest.extension:locationAndTime"/>
          <text value="Ort und Zeit der Durchf체hrung der angeforderten Leistung"/>
          <type value="group"/>
          <repeats value="true"/>
          <item>
            <linkId value="appointment.location"/>
            <definition value="http://fhir.ch/ig/ch-orf/StructureDefinition/ch-orf-appointment#Appointment.participant.actor"/>
            <text value="Ort der Durchf체hrung"/>
            <type value="group"/>
            <required value="true"/>
            <item>
              <linkId value="appointment.location.name"/>
              <definition value="http://fhir.ch/ig/ch-orf/StructureDefinition/ch-orf-location#Location.name"/>
              <text value="Name"/>
              <type value="string"/>
              <required value="true"/>
            </item>
            <item>
              <linkId value="appointment.location.phone"/>
              <definition value="http://fhir.ch/ig/ch-orf/StructureDefinition/ch-orf-location#Location.telecom.value"/>
              <text value="Telefon"/>
              <type value="string"/>
            </item>
            <item>
              <linkId value="appointment.location.email"/>
              <definition value="http://fhir.ch/ig/ch-orf/StructureDefinition/ch-orf-location#Location.telecom.value"/>
              <text value="E-Mail"/>
              <type value="string"/>
            </item>
            <item>
              <linkId value="appointment.location.streetAddressLine"/>
              <definition value="http://fhir.ch/ig/ch-orf/StructureDefinition/ch-orf-location#Location.address.line"/>
              <text value="Strasse, Hausnummer, Postfach etc."/>
              <type value="string"/>
              <repeats value="true"/>
            </item>
            <item>
              <linkId value="appointment.location.postalCode"/>
              <definition value="http://fhir.ch/ig/ch-orf/StructureDefinition/ch-orf-location#Location.address.postalCode"/>
              <text value="PLZ"/>
              <type value="string"/>
            </item>
            <item>
              <linkId value="appointment.location.city"/>
              <definition value="http://fhir.ch/ig/ch-orf/StructureDefinition/ch-orf-location#Location.address.city"/>
              <text value="Ort"/>
              <type value="string"/>
            </item>
            <item>
              <linkId value="appointment.location.country"/>
              <definition value="http://fhir.ch/ig/ch-orf/StructureDefinition/ch-orf-location#Location.address.country"/>
              <text value="Land"/>
              <type value="string"/>
            </item>
          </item>
          <item>
            <linkId value="appointment.requestedPeriod"/>
            <definition value="http://fhir.ch/ig/ch-orf/StructureDefinition/ch-orf-appointment#Appointment.requestedPeriod"/>
            <text value="Datum und Zeit, wann der Termin bevorzugt geplant werden soll"/>
            <type value="group"/>
            <item>
              <linkId value="appointment.requestedPeriod.start"/>
              <definition value="http://fhir.ch/ig/ch-orf/StructureDefinition/ch-orf-appointment#Appointment.requestedPeriod.start"/>
              <text value="Von"/>
              <type value="dateTime"/>
            </item>
            <item>
              <linkId value="appointment.requestedPeriod.end"/>
              <definition value="http://fhir.ch/ig/ch-orf/StructureDefinition/ch-orf-appointment#Appointment.requestedPeriod.end"/>
              <text value="Bis"/>
              <type value="dateTime"/>
            </item>
          </item>
          <item>
            <linkId value="appointment.status"/>
            <definition value="http://fhir.ch/ig/ch-orf/StructureDefinition/ch-orf-appointment#Appointment.status"/>
            <text value="Status"/>
            <type value="choice"/>
            <required value="true"/>
            <answerOption>
              <valueCoding>
                <system value="http://hl7.org/fhir/appointmentstatus"/>
                <code value="proposed"/>
                <display value="Wunsch des Patienten (vorgeschlagen)"/>
              </valueCoding>
              <initialSelected value="true"/>
            </answerOption>
            <answerOption>
              <valueCoding>
                <system value="http://hl7.org/fhir/appointmentstatus"/>
                <code value="pending"/>
                <display value="Vom Patienten best채tigt, aber vom Leistungserbringer noch nicht (ausstehend)"/>
              </valueCoding>
            </answerOption>
            <answerOption>
              <valueCoding>
                <system value="http://hl7.org/fhir/appointmentstatus"/>
                <code value="booked"/>
                <display value="Vom Patienten und Leistungserbringer best채tigt (gebucht)"/>
              </valueCoding>
            </answerOption>
          </item>
          <item>
            <linkId value="appointment.patientInstruction"/>
            <definition value="http://fhir.ch/ig/ch-orf/StructureDefinition/ch-orf-appointment#Appointment.patientInstruction"/>
            <text value="Patienteninformation f체r diesen Termin"/>
            <type value="string"/>
          </item>
        </item>
        <item>
          <linkId value="note"/>
          <text value="Bemerkungen"/>
          <type value="group"/>
          <repeats value="true"/>
          <item>
            <linkId value="note.text"/>
            <definition value="http://fhir.ch/ig/ch-orf/StructureDefinition/ch-orf-servicerequest#ServiceRequest.note.text"/>
            <text value="Kommentar"/>
            <type value="string"/>
            <required value="true"/>
          </item>
        </item>
      </Questionnaire>
    </resource>
  </entry>
</Bundle>